Sensor: LSM6DSO Acceleration Sensor
Vendor: STM
TimestampAcc [ns]; AccX [m/s^2]; AccY [m/s^2]; AccZ [m/s^2]
1028164587713590;0.0599;9.3999;1.4342;
1028164607737590;0.0599;9.3999;1.4342;
1028164627749590;0.0599;9.3999;1.4342;
1028164647778506;-0.5555;9.1102;1.5682;
1028164667784506;-0.3328;10.1038;0.3472;
1028164687789306;0.0383;10.1134;0.3903;
1028164707793306;0.1413;9.4047;1.3456;
1028164727796734;-0.4453;9.3927;1.2881;
1028164747799734;-0.2945;10.0344;0.4118;
1028164767802400;0.0718;9.9338;0.6776;
1028164787804800;-0.0192;9.4239;1.3288;
1028164807806981;-0.3328;9.5603;1.0631;
1028164827808981;-0.2801;9.9650;0.5339;
1028164847810827;0.0431;9.7974;0.8356;
1028164867812755;-0.0910;9.4550;1.2426;
1028164887814355;-0.2969;9.6753;0.9002;
1028164907815855;-0.1772;9.9219;0.6177;
1028164927817266;-0.0144;9.7136;0.9314;
1028164947818599;-0.1101;9.5244;1.1277;
1028164967819862;-0.2418;9.7232;0.8332;
1028164987821062;-0.1556;9.8453;0.7231;
1028165007822204;-0.0575;9.6609;0.9912;
1028165027823294;-0.1604;9.5723;1.0463;
1028165047824337;-0.2251;9.7495;0.8045;
1028165067825337;-0.1604;9.7926;0.7805;
1028165087826297;-0.0910;9.6417;0.9840;
1028165107827220;-0.1676;9.6417;0.9745;
1028165127827479;-0.1915;9.7423;0.8117;
1028165147827907;-0.1173;9.7399;0.8332;
1028165167828251;-0.1053;9.6393;0.9864;
1028165187828584;-0.1604;9.6633;0.9577;
1028165207828550;-0.1676;9.7591;0.8236;
1028165227828450;-0.1484;9.7255;0.8428;
1028165247828316;-0.1149;9.6417;0.9457;
1028165267828149;-0.1676;9.7112;0.9146;
1028165287827982;-0.1676;9.7471;0.8308;
1028165307827682;-0.1197;9.7064;0.8643;
1028165327827315;-0.1508;9.6561;0.9338;
1028165347826881;-0.1652;9.7160;0.9002;
1028165367826314;-0.1676;9.7351;0.8619;
1028165387825680;-0.1365;9.6896;0.8907;
1028165407824980;-0.1269;9.6896;0.9290;
1028165427824146;-0.1724;9.7255;0.8931;
1028165447822546;-0.1532;9.7088;0.8811;
1028165467821479;-0.1269;9.6848;0.9218;
1028165487819745;-0.1293;9.6824;0.8979;
1028165507817945;-0.1724;9.7208;0.8691;
1028165527816711;-0.1437;9.7064;0.8955;
1028165547815411;-0.1293;9.6920;0.9146;
1028165567814044;-0.1365;9.6992;0.8811;
1028165587811844;-0.1580;9.7184;0.8595;
1028165607810277;-0.1556;9.7160;0.8859;
1028165627808643;-0.1221;9.6992;0.9194;
1028165647806943;-0.1676;9.7016;0.8907;
1028165667805143;-0.1604;9.7064;0.8619;
1028165687803276;-0.1556;9.7088;0.8835;
1028165707834676;-0.1293;9.7112;0.9386;
1028165727866509;-0.1484;9.6920;0.9098;
1028165747898109;-0.1341;9.7112;0.8643;
1028165767929709;-0.1245;9.7064;0.8643;
1028165787960809;-0.1341;9.7255;0.9266;
1028165807991775;-0.1508;9.7040;0.9098;
1028165828022741;-0.1580;9.7064;0.8691;
1028165848053674;-0.1796;9.6920;0.8524;
1028165868084507;-0.1317;9.6944;0.8931;
1028165888115273;-0.1508;9.7160;0.9242;
1028165908146106;-0.1484;9.6968;0.8883;
1028165928176939;-0.1484;9.6920;0.8619;
1028165948207705;-0.1748;9.6777;0.8404;
1028165968238538;-0.1652;9.6920;0.9050;
1028165988269371;-0.1652;9.7040;0.9266;
1028166008300137;-0.1532;9.7064;0.8883;
1028166028330270;-0.1484;9.7016;0.8452;
1028166048361803;-0.1341;9.7064;0.8452;
1028166068392669;-0.1341;9.7112;0.9002;
1028166088424169;-0.1269;9.7184;0.9745;
1028166108455669;-0.1197;9.7088;0.9218;
1028166128486535;-0.1341;9.6920;0.8260;
1028166148517335;-0.1365;9.6729;0.7973;
1028166168548135;-0.1317;9.7016;0.8356;
1028166188579701;-0.1580;9.7327;0.9146;
1028166208610567;-0.1484;9.7232;0.9362;
1028166228641367;-0.1676;9.6777;0.8715;
1028166248672167;-0.1532;9.6944;0.8141;
1028166268703000;-0.1221;9.6944;0.8284;
1028166288309560;-0.1413;9.6920;0.8667;
1028166308307193;-0.1628;9.7208;0.9481;
1028166328304226;-0.1484;9.7136;0.9266;
1028166348301992;-0.1461;9.7088;0.8859;
1028166368299792;-0.1413;9.6992;0.8763;
1028166388298025;-0.1532;9.7112;0.9002;
1028166408295891;-0.1652;9.7088;0.9002;
1028166428293757;-0.1461;9.6992;0.8979;
1028166448290857;-0.1341;9.6968;0.8619;
1028166468288723;-0.1365;9.6705;0.8524;
1028166488286589;-0.1461;9.6824;0.8356;
1028166508283689;-0.1437;9.6944;0.8739;
1028166528281489;-0.1461;9.7232;0.9481;
1028166548279355;-0.1508;9.7351;0.9817;
1028166568276521;-0.1532;9.7447;0.9769;
1028166588274321;-0.1365;9.7160;0.9170;
1028166608272187;-0.1389;9.6777;0.8188;
1028166628270753;-0.1508;9.6705;0.7326;
1028166648268553;-0.1484;9.6872;0.7326;
1028166668266319;-0.1676;9.7088;0.8691;
1028166688264152;-0.1748;9.7232;0.9625;
1028166708261985;-0.1652;9.7567;1.0750;
1028166728259785;-0.1508;9.7495;1.0774;
1028166748257651;-0.1461;9.7160;0.9721;
1028166768255517;-0.1365;9.6753;0.8164;
1028166788253383;-0.1245;9.6657;0.6919;
1028166808251183;-0.1173;9.6441;0.6632;
1028166828249049;-0.1293;9.6753;0.6919;
1028166848246915;-0.1389;9.7040;0.7925;
1028166868244715;-0.1461;9.7232;0.9314;
1028166888242481;-0.1461;9.7543;1.0535;
1028166908240147;-0.1341;9.7615;1.0942;
1028166928238480;-0.1437;9.7495;1.0798;
1028166948236013;-0.1700;9.7399;1.0104;
1028166968233513;-0.1796;9.7016;0.9098;
1028166988231013;-0.1796;9.7040;0.8691;
1028167008228446;-0.1700;9.6753;0.7231;
1028167028225879;-0.1652;9.6705;0.7039;
1028167048224079;-0.1604;9.6537;0.7350;
1028167068221579;-0.1748;9.6657;0.7805;
1028167088219012;-0.1676;9.6968;0.8595;
1028167108217212;-0.1437;9.7471;0.9338;
1028167128214745;-0.1365;9.7232;0.9625;
1028167148212211;-0.1293;9.7519;0.9721;
1028167168210377;-0.1293;9.7495;0.9840;
1028167188207910;-0.1341;9.7375;0.9601;
1028167208205443;-0.1197;9.7208;0.9338;
1028167228202909;-0.1461;9.7255;0.9290;
1028167248200442;-0.1508;9.7112;0.8811;
1028167268197975;-0.1437;9.6753;0.8715;
1028167288195508;-0.1461;9.6681;0.8595;
1028167308192974;-0.1724;9.6537;0.8356;
1028167328190474;-0.1580;9.6729;0.8356;
1028167348187974;-0.1580;9.6753;0.8356;
1028167368185440;-0.1580;9.6896;0.8476;
1028167388183006;-0.1461;9.7160;0.8643;
1028167408180706;-0.1365;9.7088;0.8739;
1028167428178439;-0.1413;9.7184;0.9050;
1028167448176205;-0.1293;9.7112;0.9074;
1028167468174038;-0.1101;9.7160;0.8859;
1028167488171871;-0.1389;9.6896;0.8859;
1028167508169637;-0.1389;9.6681;0.8883;
1028167528167403;-0.1269;9.6848;0.8524;
1028167548165236;-0.1365;9.7112;0.8763;
1028167568163069;-0.1293;9.7208;0.8667;
1028167588160835;-0.1245;9.7064;0.8763;
1028167608158668;-0.1437;9.7232;0.8907;
1028167628156501;-0.1820;9.7232;0.9026;
1028167648154334;-0.1844;9.7040;0.9002;
1028167668152100;-0.1772;9.6944;0.8979;
1028167688149933;-0.1628;9.6729;0.8763;
1028167708147066;-0.1604;9.6657;0.8883;
1028167728144799;-0.1341;9.6968;0.8715;
1028167748142599;-0.1628;9.7064;0.8667;
1028167768140399;-0.1532;9.6872;0.8715;
1028167788138199;-0.1508;9.7232;0.8476;
1028167808135932;-0.1389;9.7351;0.8907;
1028167828133732;-0.1197;9.7208;0.9050;
1028167848131565;-0.1197;9.6753;0.9098;
1028167868129331;-0.1197;9.7064;0.8979;
1028167888127097;-0.1173;9.7064;0.9122;
1028167908124930;-0.1389;9.7040;0.9242;
1028167928122763;-0.1508;9.6944;0.8859;
1028167948153863;-0.1676;9.6848;0.8691;
1028167968184996;-0.1461;9.7040;0.8452;
1028167988216029;-0.1508;9.7136;0.8619;
1028168008246929;-0.1508;9.7136;0.8524;
1028168028277795;-0.1437;9.7184;0.8619;
1028168048308628;-0.1700;9.7112;0.8907;
1028168068372728;-0.1532;9.6968;0.8859;
1028168088436828;-0.1293;9.7184;0.8931;
1028168108500994;-0.1484;9.6920;0.9026;
1028168128565160;-0.1245;9.6968;0.9098;
1028168148629260;-0.1269;9.6992;0.9026;
1028168168693360;-0.1461;9.7064;0.8955;
1028168188757526;-0.1508;9.7208;0.8787;
1028168208821692;-0.1484;9.7232;0.8643;
1028168228885792;-0.1389;9.7040;0.8835;
1028168248949925;-0.1484;9.7184;0.8907;
1028168269014125;-0.1484;9.7016;0.8787;
1028168289078258;-0.1413;9.6824;0.8883;
1028168309143091;-0.1652;9.6705;0.8787;
1028168329207291;-0.1341;9.6777;0.9050;
1028168349271491;-0.1197;9.6896;0.9002;
1028168369335624;-0.1245;9.6920;0.9002;
1028168389399757;-0.1461;9.7136;0.8763;
1028168409463957;-0.1341;9.7184;0.8763;
1028168429528090;-0.1317;9.7088;0.8883;
1028168449592190;-0.1604;9.7088;0.9050;
1028168469656390;-0.1484;9.7064;0.8859;
1028168489720623;-0.1508;9.7088;0.8691;
1028168509784856;-0.1556;9.7136;0.8787;
1028168529849089;-0.1508;9.6968;0.8907;
1028168549880055;-0.1580;9.6920;0.8667;
1028168569910955;-0.1437;9.7016;0.8931;
1028168589941855;-0.1604;9.6944;0.9098;
1028168609972821;-0.1556;9.6968;0.8931;
1028168630003787;-0.1317;9.6992;0.8859;
1028168650034687;-0.1461;9.7088;0.8859;
1028168670032320;-0.1341;9.7232;0.8859;
1028168690029953;-0.1245;9.7160;0.8643;
1028168710026886;-0.1532;9.7279;0.8643;
1028168730023752;-0.1293;9.7136;0.8691;
1028168750021385;-0.1293;9.7040;0.8763;
1028168770019018;-0.1245;9.6848;0.8715;
1028168790016584;-0.1437;9.6992;0.9050;
1028168810014150;-0.1437;9.6681;0.9122;
1028168830011783;-0.1820;9.6657;0.9266;
1028168850009383;-0.1628;9.7064;0.8955;
1028168870006949;-0.1461;9.7112;0.8979;
1028168890004582;-0.1724;9.7160;0.8931;
1028168910002215;-0.1580;9.7327;0.8931;
1028168929999781;-0.1628;9.7423;0.8643;
1028168949997347;-0.1413;9.7255;0.8428;
1028168969994980;-0.1580;9.7160;0.8835;
1028168989992613;-0.1317;9.7112;0.8739;
1028169009990179;-0.1197;9.6944;0.8859;
1028169029987812;-0.1077;9.6896;0.9122;
1028169049985445;-0.1317;9.6920;0.9242;
1028169069983045;-0.1389;9.6896;0.9002;
1028169089980545;-0.1389;9.7016;0.8715;
1028169109978045;-0.1293;9.7112;0.8787;
1028169129975545;-0.1556;9.7136;0.8955;
1028169149972978;-0.1628;9.7279;0.8763;
1028169169970478;-0.1580;9.7040;0.8835;
1028169189967978;-0.1508;9.7208;0.8739;
1028169209965478;-0.1293;9.7375;0.8236;
1028169229962911;-0.1365;9.7160;0.8763;
1028169249960411;-0.1532;9.6872;0.9098;
1028169269957911;-0.1365;9.6920;0.8811;
1028169289955377;-0.1437;9.6848;0.8739;
1028169309953543;-0.1580;9.6944;0.8979;
1028169329951776;-0.1604;9.6801;0.9409;
1028169349949309;-0.1676;9.7160;0.8715;
1028169369946775;-0.1700;9.7279;0.8883;
1028169389944308;-0.1820;9.7064;0.8835;
1028169409941841;-0.1604;9.7184;0.8835;
1028169429939307;-0.1580;9.7112;0.8619;
1028169449936773;-0.1437;9.7064;0.8452;
1028169469934273;-0.1293;9.6968;0.9026;
1028169489931773;-0.1245;9.7136;0.8955;
1028169509929239;-0.1173;9.6944;0.8500;
1028169529926872;-0.1365;9.7112;0.8619;
1028169549924572;-0.1389;9.6872;0.8691;
1028169569922305;-0.1484;9.6872;0.9002;
1028169589920071;-0.1700;9.7016;0.8931;
1028169609917904;-0.1508;9.7184;0.9146;
1028169629915737;-0.1604;9.7040;0.8787;
1028169649913503;-0.1580;9.7351;0.9433;
1028169669911269;-0.1676;9.7040;0.8691;
1028169689909102;-0.1700;9.7160;0.8595;
1028169709906502;-0.1580;9.7040;0.9098;
1028169729903568;-0.1628;9.7016;0.8476;
1028169749901401;-0.1365;9.7040;0.8500;
1028169769899234;-0.1365;9.7040;0.9026;
1028169789897000;-0.1101;9.6896;0.8883;
1028169809894766;-0.1341;9.6896;0.8548;
1028169829892299;-0.1341;9.7232;0.9314;
1028169849890132;-0.1293;9.7136;0.9074;
1028169869887898;-0.1365;9.6801;0.8332;
1028169889885698;-0.1413;9.7375;0.9409;
1028169909883498;-0.1197;9.7136;0.9002;
1028169929881231;-0.1580;9.6944;0.8404;
1028169949878964;-0.1532;9.6968;0.8524;
1028169969876764;-0.1556;9.7160;0.9505;
1028169989874564;-0.1628;9.6992;0.8619;
1028170009872330;-0.1628;9.6920;0.8356;
1028170029870163;-0.1484;9.7064;0.8739;
1028170049867996;-0.1341;9.6944;0.8979;
1028170069865829;-0.1508;9.7064;0.8907;
1028170089863595;-0.1389;9.6992;0.8572;
1028170109861395;-0.1317;9.6992;0.8811;
1028170129859095;-0.1269;9.7136;0.9074;
1028170149856661;-0.1341;9.7184;0.9146;
1028170169854194;-0.1413;9.7088;0.8787;
1028170189851694;-0.1293;9.7136;0.8643;
1028170209849194;-0.1461;9.6944;0.8811;
1028170229846627;-0.1413;9.6920;0.8955;
1028170249844127;-0.1580;9.6944;0.8859;
1028170269841627;-0.1628;9.7160;0.8691;
1028170289839060;-0.1413;9.6896;0.8763;
1028170309836926;-0.1365;9.6992;0.8811;
1028170329835126;-0.1484;9.7040;0.8643;
1028170349832626;-0.1437;9.7112;0.8835;
1028170369830059;-0.1580;9.7160;0.8739;
1028170389827559;-0.1461;9.7208;0.8883;
1028170409825092;-0.1317;9.7136;0.8979;
1028170429822858;-0.1532;9.7088;0.8739;
1028170449820324;-0.1389;9.6872;0.8691;
1028170469817857;-0.1484;9.6896;0.8859;
1028170489815390;-0.1628;9.7040;0.8931;
1028170509812856;-0.1389;9.7160;0.9098;
1028170529810389;-0.1365;9.7064;0.8811;
1028170549807922;-0.1461;9.7064;0.8524;
1028170569805455;-0.1365;9.7040;0.8572;
1028170589802921;-0.1461;9.7232;0.8811;
1028170609800454;-0.1461;9.7184;0.8979;
1028170629798020;-0.1413;9.7184;0.9074;
1028170649795586;-0.1365;9.7112;0.8763;
1028170669793152;-0.1245;9.6944;0.8835;
1028170689790785;-0.1389;9.7016;0.8883;
1028170709787718;-0.1341;9.7016;0.9050;
1028170729785284;-0.1508;9.7064;0.9146;
1028170749782917;-0.1556;9.7016;0.8811;
1028170769780550;-0.1700;9.7136;0.8763;
1028170789778116;-0.1437;9.7016;0.8452;
1028170809775682;-0.1580;9.6968;0.8643;
1028170829773315;-0.1508;9.7303;0.8787;
1028170849770948;-0.1484;9.7088;0.8739;
1028170869768514;-0.1437;9.7040;0.8835;
1028170889766147;-0.1508;9.6992;0.8691;
1028170909763780;-0.1389;9.7040;0.8955;
1028170929761346;-0.1532;9.6992;0.8667;
1028170949758912;-0.1484;9.6944;0.8835;
1028170969756545;-0.1365;9.7016;0.8835;
1028170989754178;-0.1508;9.7040;0.8835;
1028171009751711;-0.1413;9.7160;0.8811;
1028171029749344;-0.1580;9.7040;0.8572;
1028171049746977;-0.1604;9.6896;0.8739;
1028171069744610;-0.1604;9.7136;0.8883;
1028171089742176;-0.1652;9.7279;0.8907;
1028171109739809;-0.1484;9.7112;0.8763;
1028171129737442;-0.1365;9.6968;0.8859;
1028171149735008;-0.1317;9.7016;0.8763;
1028171169732574;-0.1293;9.6872;0.8763;
1028171189730207;-0.1484;9.6968;0.8667;
1028171209727807;-0.1413;9.7040;0.8883;
1028171229725307;-0.1437;9.7303;0.8931;
1028171249722807;-0.1461;9.7184;0.8979;
1028171269720307;-0.1437;9.7016;0.8787;
1028171289717740;-0.1604;9.7016;0.8715;
1028171309715873;-0.1748;9.6992;0.8835;
1028171329713373;-0.1700;9.6992;0.8643;
1028171349710873;-0.1724;9.6872;0.8739;
1028171369708306;-0.1508;9.7088;0.8883;
1028171389705806;-0.1413;9.6968;0.8835;
1028171409703306;-0.1437;9.6896;0.8859;
1028171429700772;-0.1341;9.7184;0.9505;
1028171449698238;-0.1389;9.6992;0.8859;
1028171469695771;-0.1389;9.7016;0.9122;
1028171489693304;-0.1365;9.6968;0.8356;
1028171509690770;-0.1461;9.7160;0.8931;
1028171529688303;-0.1437;9.7136;0.8907;
1028171549685836;-0.1317;9.7088;0.8787;
1028171569683369;-0.1101;9.7088;0.8380;
1028171589680835;-0.1173;9.7327;0.8811;
1028171609678368;-0.1269;9.7279;0.8715;
1028171629675868;-0.1604;9.7160;0.8883;
1028171649673334;-0.1652;9.7040;0.8979;
1028171669670900;-0.1844;9.6681;0.8691;
1028171689668600;-0.1676;9.6824;0.8787;
1028171709665633;-0.1628;9.6801;0.8667;
1028171729662666;-0.1676;9.6896;0.8691;
1028171749660532;-0.1748;9.7040;0.8739;
1028171769657698;-0.1844;9.7303;0.8931;
1028171789655498;-0.1676;9.7208;0.9002;
1028171809653298;-0.1461;9.7208;0.9002;
1028171829651164;-0.1317;9.7327;0.8955;
1028171849649030;-0.1077;9.7112;0.8763;
1028171869646830;-0.0910;9.6992;0.8548;
1028171889644696;-0.0958;9.7016;0.9122;
1028171909642562;-0.1197;9.6777;0.8739;
1028171929640362;-0.1030;9.7160;0.8572;
1028171949638162;-0.0958;9.7255;0.8715;
1028171969636028;-0.1389;9.6920;0.8715;
1028171989633894;-0.1556;9.7064;0.8787;
1028172009631694;-0.1556;9.7184;0.8715;
1028172029629527;-0.1556;9.7040;0.8787;
1028172049627360;-0.2131;9.7040;0.8883;
1028172069625193;-0.2107;9.6777;0.8907;
1028172089622993;-0.2107;9.6777;0.8619;
1028172109620859;-0.2011;9.6824;0.8907;
1028172129618725;-0.1963;9.6896;0.9050;
1028172149616525;-0.1604;9.7064;0.8763;
1028172169614325;-0.1245;9.7279;0.8739;
1028172189612191;-0.1484;9.7136;0.8955;
1028172209610057;-0.1341;9.7088;0.8835;
1028172229607857;-0.1125;9.7064;0.8715;
1028172249605690;-0.1006;9.7160;0.8907;
1028172269602490;-0.0982;9.7112;0.9098;
1028172289600090;-0.1006;9.7088;0.9026;
1028172309598356;-0.1293;9.6920;0.8691;
1028172329596622;-0.1077;9.7232;0.8500;
1028172349594122;-0.1341;9.7279;0.8548;
1028172369592255;-0.1556;9.6896;0.8739;
1028172389589755;-0.2059;9.6824;0.8595;
1028172409587255;-0.1963;9.6944;0.8835;
1028172429584688;-0.1915;9.6992;0.8955;
1028172449582121;-0.2035;9.7040;0.8955;
1028172469612954;-0.1868;9.7040;0.8883;
1028172489643787;-0.1748;9.7160;0.9074;
1028172509674587;-0.1532;9.6992;0.9098;
1028172529705453;-0.1628;9.7064;0.8859;
1028172549736319;-0.1389;9.7160;0.8907;
1028172569767119;-0.1101;9.7112;0.8691;
1028172589797919;-0.1030;9.6968;0.8524;
1028172609828785;-0.0934;9.7016;0.8619;
1028172629859651;-0.1197;9.7016;0.8428;
1028172649890451;-0.1245;9.7088;0.8595;
1028172669921251;-0.1317;9.6992;0.8691;
1028172689952084;-0.1532;9.6968;0.8667;
1028172709982917;-0.1580;9.7112;0.8931;
1028172730013683;-0.1484;9.6968;0.8715;
1028172750044549;-0.1556;9.7064;0.8811;
1028172770075515;-0.1724;9.6944;0.8787;
1028172790106515;-0.1772;9.7327;0.9074;
1028172810137548;-0.1676;9.6872;0.8811;
1028172830168714;-0.1939;9.6872;0.8859;
1028172850199880;-0.1844;9.6896;0.8619;
1028172870231913;-0.1484;9.6968;0.8643;
1028172890263079;-0.1317;9.7136;0.8739;
1028172910294245;-0.1437;9.7208;0.8739;
1028172930325345;-0.1245;9.7064;0.8883;
1028172950356445;-0.1173;9.7064;0.8739;
1028172970387611;-0.1317;9.6944;0.8907;
1028172990418777;-0.0982;9.7016;0.9146;
1028173010449877;-0.0814;9.7232;0.8811;
1028173030481043;-0.0886;9.7064;0.8955;
1028173050512209;-0.1197;9.7040;0.8931;
1028173070509975;-0.1724;9.6848;0.8835;
1028173090507741;-0.1820;9.7136;0.8691;
1028173110505541;-0.1844;9.7040;0.8835;
1028173130503341;-0.2083;9.7016;0.8739;
1028173150501074;-0.1820;9.7088;0.8548;
1028173170498874;-0.1580;9.7375;0.8859;
1028173190496674;-0.1508;9.7016;0.8931;
1028173210494474;-0.1508;9.6872;0.9002;
1028173230492240;-0.1580;9.6968;0.8763;
1028173250489373;-0.1245;9.6992;0.9026;
1028173270486506;-0.0958;9.7064;0.8955;
1028173290484272;-0.0862;9.7184;0.8859;
1028173310482038;-0.0886;9.7471;0.8452;
1028173330479871;-0.1221;9.7351;0.8619;
1028173350477671;-0.1365;9.7040;0.8643;
1028173370475304;-0.1796;9.7016;0.8763;
1028173390472904;-0.2011;9.6872;0.8691;
1028173410470470;-0.1724;9.6968;0.9050;
1028173430467903;-0.1844;9.6896;0.9242;
1028173450464636;-0.1676;9.6896;0.8859;
1028173470462136;-0.1844;9.6824;0.8859;
1028173490459636;-0.1820;9.7112;0.9098;
1028173510457069;-0.1437;9.7112;0.8500;
1028173530454569;-0.1389;9.7112;0.8356;
1028173550452069;-0.1221;9.7016;0.8548;
1028173570449502;-0.1173;9.7088;0.8572;
1028173590446935;-0.1030;9.7232;0.8643;
1028173610444435;-0.0958;9.6968;0.8715;
1028173630441968;-0.1221;9.6801;0.9050;
1028173650439434;-0.1293;9.7016;0.8811;
1028173670436967;-0.1317;9.7232;0.8739;
1028173690434500;-0.1389;9.7136;0.9026;
1028173710432033;-0.1796;9.7016;0.9026;
1028173730429499;-0.1652;9.7160;0.8643;
1028173750427032;-0.1604;9.7064;0.8715;
1028173770424565;-0.1796;9.7112;0.8835;
1028173790422031;-0.1820;9.7088;0.8835;
1028173810419497;-0.1580;9.7088;0.8811;
1028173830416997;-0.1724;9.7232;0.8859;
1028173850415230;-0.1508;9.7088;0.8931;
1028173870413496;-0.1484;9.6896;0.8739;
1028173890411129;-0.1245;9.7088;0.8356;
1028173910408762;-0.1293;9.7016;0.8691;
1028173930406328;-0.1077;9.6872;0.9002;
1028173950403894;-0.1101;9.6968;0.8787;
1028173970401527;-0.0982;9.7255;0.8619;
1028173990399160;-0.1149;9.6968;0.8787;
1028174010396726;-0.1293;9.7184;0.8955;
1028174030394359;-0.1365;9.7208;0.8835;
1028174050392692;-0.1628;9.7160;0.8763;
1028174070390258;-0.1748;9.6872;0.8763;
1028174090387824;-0.1508;9.7184;0.8907;
1028174110385457;-0.1772;9.6992;0.8739;
1028174130383090;-0.1724;9.6896;0.8524;
1028174150380656;-0.1724;9.6777;0.8619;
1028174170378289;-0.1676;9.6992;0.8595;
1028174190375922;-0.1484;9.6944;0.8500;
1028174210373555;-0.1652;9.7208;0.8811;
1028174230371088;-0.1437;9.7184;0.8715;
1028174250368021;-0.1173;9.7112;0.8835;
1028174270364954;-0.1293;9.7112;0.8907;
1028174290361820;-0.1197;9.7040;0.8955;
1028174310359153;-0.1221;9.6944;0.8787;
1028174330356786;-0.1365;9.6920;0.8835;
1028174350354419;-0.1461;9.7016;0.8667;
1028174370351985;-0.1413;9.6777;0.8811;
1028174390349618;-0.1556;9.6896;0.8691;
1028174410347251;-0.1676;9.7040;0.8643;
1028174430344817;-0.1652;9.7112;0.8763;
1028174450342350;-0.1820;9.7232;0.8595;
1028174470339850;-0.1580;9.7232;0.8883;
1028174490337350;-0.1461;9.7088;0.8691;
1028174510334783;-0.1628;9.6920;0.9002;
1028174530332283;-0.1365;9.6848;0.8763;
1028174550329783;-0.1437;9.6992;0.9002;
1028174570327216;-0.1580;9.6944;0.8715;
1028174590324649;-0.1437;9.7088;0.8619;
1028174610322149;-0.1317;9.7064;0.8691;
1028174630319649;-0.1269;9.7208;0.8739;
1028174650317115;-0.1365;9.6968;0.8643;
1028174670314648;-0.1341;9.7064;0.8667;
1028174690312181;-0.1221;9.7016;0.8595;
1028174710309714;-0.1269;9.7160;0.9026;
1028174730307180;-0.1413;9.7160;0.8715;
1028174750304713;-0.1532;9.7208;0.9050;
1028174770302246;-0.1437;9.6920;0.8715;
1028174790299712;-0.1604;9.6968;0.9098;
1028174810297178;-0.1748;9.6872;0.8691;
1028174830294711;-0.1556;9.6801;0.8667;
1028174850292911;-0.1484;9.6968;0.8524;
1028174870291044;-0.1461;9.7136;0.8572;
1028174890289277;-0.1556;9.7184;0.8500;
1028174910287143;-0.1652;9.7064;0.8955;
1028174930284809;-0.1365;9.7208;0.8524;
1028174950282509;-0.1389;9.7160;0.8811;
1028174970280342;-0.1437;9.7160;0.8835;
1028174990278175;-0.1269;9.6920;0.9050;
1028175010275941;-0.1365;9.6992;0.8907;
1028175030273774;-0.1389;9.7088;0.8739;
1028175050271607;-0.1317;9.7279;0.8979;
1028175070269373;-0.1317;9.7064;0.8691;
1028175090267139;-0.1508;9.7184;0.8667;
1028175110264972;-0.1484;9.7208;0.8524;
1028175130262805;-0.1293;9.7136;0.8667;
1028175150260571;-0.1484;9.6920;0.8859;
1028175170258404;-0.1652;9.6753;0.8811;
1028175190256237;-0.1628;9.7160;0.8667;
1028175210254070;-0.1389;9.6848;0.8955;
1028175230251836;-0.1556;9.6824;0.8595;
1028175250249636;-0.1484;9.7016;0.8739;
1028175270246736;-0.1652;9.7160;0.8835;
1028175290244469;-0.1317;9.7232;0.8835;
1028175310242202;-0.1508;9.7184;0.8955;
1028175330239535;-0.1317;9.7208;0.8955;
1028175350237335;-0.1293;9.7088;0.8572;
1028175370235101;-0.1293;9.6872;0.8380;
1028175390232934;-0.1437;9.6920;0.8643;
1028175410230767;-0.1365;9.6992;0.8667;
1028175430228533;-0.1461;9.7064;0.8955;
1028175450226299;-0.1077;9.7016;0.8595;
1028175470224132;-0.1341;9.7160;0.8643;
1028175490221932;-0.1317;9.6920;0.8715;
1028175510219565;-0.1532;9.6992;0.8811;
1028175530217165;-0.1389;9.7255;0.8835;
1028175550214731;-0.1413;9.7208;0.8643;
1028175570212164;-0.1676;9.7112;0.8763;
1028175590209597;-0.1652;9.7040;0.8667;
1028175610207097;-0.1652;9.6944;0.8883;
1028175630204597;-0.1461;9.6753;0.8763;
1028175650202030;-0.1532;9.6681;0.8883;
1028175670199530;-0.1317;9.6872;0.8835;
1028175690197030;-0.1197;9.6944;0.8715;
1028175710194530;-0.1077;9.7112;0.8691;
1028175730191963;-0.1269;9.7112;0.8715;
1028175750189463;-0.1389;9.6992;0.8332;
1028175770186963;-0.1484;9.7016;0.8643;
1028175790184429;-0.1461;9.6968;0.8595;
1028175810181895;-0.1532;9.7016;0.8835;
1028175830179428;-0.1365;9.7112;0.8931;
1028175850176961;-0.1508;9.6992;0.8595;
1028175870175127;-0.1484;9.6992;0.8763;
1028175890172660;-0.1484;9.7088;0.9026;
1028175910170193;-0.1628;9.7136;0.8667;
1028175930168126;-0.1676;9.7040;0.8835;
1028175950165592;-0.1317;9.7088;0.8931;
1028175970163092;-0.1269;9.7303;0.8931;
1028175990160625;-0.1149;9.7303;0.8931;
1028176010158191;-0.1293;9.7279;0.8763;
1028176030155824;-0.1461;9.7184;0.8452;
1028176050153457;-0.1580;9.7040;0.8524;
1028176070151023;-0.1461;9.7016;0.8739;
1028176090148589;-0.1365;9.6848;0.8787;
1028176110146222;-0.1197;9.6944;0.8667;
1028176130143855;-0.1317;9.6896;0.8859;
1028176150141421;-0.1772;9.7064;0.9002;
1028176170139054;-0.1676;9.7160;0.8955;
1028176190136687;-0.1772;9.7184;0.9074;
1028176210134320;-0.1508;9.7184;0.8811;
1028176230131886;-0.1389;9.7375;0.8835;
1028176250128886;-0.1197;9.7303;0.8524;
1028176270125819;-0.1508;9.7160;0.8619;
1028176290123385;-0.1149;9.7040;0.8811;
1028176310120951;-0.1676;9.7136;0.8787;
1028176330118151;-0.1197;9.6992;0.8643;
1028176350115784;-0.1437;9.6753;0.8595;
1028176370113350;-0.1221;9.6872;0.8931;
1028176390110950;-0.1221;9.7208;0.8859;
1028176410108583;-0.1293;9.7184;0.8643;
1028176430106149;-0.1484;9.7040;0.8691;
1028176450103715;-0.1772;9.7064;0.8835;
1028176470101348;-0.1604;9.7399;0.8979;
1028176490098981;-0.1676;9.7255;0.8979;
1028176510096547;-0.1317;9.7016;0.8715;
1028176530094180;-0.1604;9.7136;0.8739;
1028176550091813;-0.1604;9.7016;0.8787;
1028176570089379;-0.1939;9.6801;0.8667;
1028176590086912;-0.1293;9.6801;0.8619;
1028176610084412;-0.1508;9.6801;0.8691;
1028176630081912;-0.1532;9.7160;0.8883;
1028176650079345;-0.1532;9.7088;0.8883;
1028176670076845;-0.1293;9.7208;0.8787;
1028176690074345;-0.1389;9.7112;0.8835;
1028176710071845;-0.1389;9.7184;0.8763;
1028176730069278;-0.1365;9.7255;0.8667;
1028176750066778;-0.1197;9.6992;0.8572;
1028176770064278;-0.1365;9.6848;0.8548;
1028176790061711;-0.1293;9.7040;0.8667;
1028176810059177;-0.1556;9.7136;0.8835;
1028176830056710;-0.1580;9.6992;0.8739;
1028176850054876;-0.1868;9.6944;0.8715;
1028176870053042;-0.1652;9.6992;0.8739;
1028176890050575;-0.1484;9.7064;0.8691;
1028176910048108;-0.1484;9.7208;0.8763;
1028176930046008;-0.1724;9.7064;0.8619;
1028176950043474;-0.1724;9.7040;0.8572;
1028176970041007;-0.1604;9.6968;0.8835;
1028176990038540;-0.1748;9.7016;0.8907;
1028177010035973;-0.1484;9.7208;0.8979;
1028177030033506;-0.1269;9.7112;0.8548;
1028177050031139;-0.1221;9.7351;0.8715;
1028177070028839;-0.1269;9.7160;0.8811;
1028177090026539;-0.1341;9.7040;0.8883;
1028177110024339;-0.1413;9.7016;0.8500;
1028177130022205;-0.1149;9.6753;0.8428;
1028177150020005;-0.1245;9.7016;0.8763;
1028177170017871;-0.1484;9.7160;0.8955;
1028177190015737;-0.1580;9.7184;0.9026;
1028177210013603;-0.1508;9.7016;0.8619;
1028177230011403;-0.1772;9.6872;0.8715;
1028177250009903;-0.1700;9.7184;0.8931;
1028177270007069;-0.1580;9.7208;0.8619;
1028177290004169;-0.1508;9.7088;0.8667;
1028177310001969;-0.1532;9.7064;0.8811;
1028177329999835;-0.1604;9.6992;0.8572;
1028177349997701;-0.1269;9.7016;0.8428;
1028177369995501;-0.1413;9.6968;0.8763;
1028177389993367;-0.1413;9.7136;0.8763;
1028177409991200;-0.1149;9.7255;0.8667;
1028177429988966;-0.1221;9.7040;0.8595;
1028177449986732;-0.1556;9.7064;0.8883;
1028177469984598;-0.1604;9.7016;0.8931;
1028177489982464;-0.1724;9.7112;0.8715;
1028177509980264;-0.1724;9.7016;0.8763;
1028177529978130;-0.1676;9.6944;0.8548;
1028177549975996;-0.1796;9.6920;0.8787;
1028177569973862;-0.1700;9.7112;0.8667;
1028177589971662;-0.1580;9.7112;0.8907;
1028177609969528;-0.1580;9.7064;0.8548;
1028177629967361;-0.1149;9.7136;0.8835;
1028177649965027;-0.1125;9.7136;0.8595;
1028177669962627;-0.0982;9.7064;0.8595;
1028177689960227;-0.1293;9.7279;0.8524;
1028177709957793;-0.1484;9.6896;0.8835;
1028177729955226;-0.1389;9.7208;0.8955;
1028177749952726;-0.1532;9.6920;0.8883;
1028177769950226;-0.1317;9.6896;0.8835;
1028177789947659;-0.1461;9.6824;0.8859;
1028177809945092;-0.1508;9.6944;0.8763;
1028177829942592;-0.1556;9.6896;0.8715;
1028177849939458;-0.1556;9.7184;0.8643;
1028177869937624;-0.1556;9.7136;0.8763;
1028177889935857;-0.1724;9.7255;0.8739;
1028177909933390;-0.1676;9.7160;0.8715;
1028177929930856;-0.1700;9.7160;0.8715;
1028177949928322;-0.1484;9.7064;0.8859;
1028177969925855;-0.1604;9.6896;0.8907;
1028177989923388;-0.1508;9.6896;0.8811;
1028178009920854;-0.1341;9.6896;0.8739;
1028178029918387;-0.1365;9.6992;0.8572;
1028178049915920;-0.1173;9.7040;0.8595;
1028178069913420;-0.1245;9.7064;0.8524;
1028178089910153;-0.1269;9.7255;0.8524;
1028178109907653;-0.1317;9.7184;0.8811;
1028178129905186;-0.1556;9.7232;0.8955;
1028178149936152;-0.1700;9.7136;0.8835;
1028178169967152;-0.1437;9.7160;0.8811;
1028178189998252;-0.1891;9.6896;0.8931;
1028178210029352;-0.1963;9.6872;0.8739;
1028178230060452;-0.1963;9.6872;0.8835;
1028178250090918;-0.1772;9.7184;0.8548;
1028178270121784;-0.1700;9.6968;0.8619;
1028178290152184;-0.1580;9.7112;0.8955;
1028178310183284;-0.1389;9.7255;0.8739;
1028178330213750;-0.1101;9.7351;0.8452;
1028178350244916;-0.1030;9.7136;0.8883;
1028178370276016;-0.1245;9.6992;0.8787;
1028178390307182;-0.1125;9.7088;0.8763;
1028178410338348;-0.0982;9.7232;0.8787;
1028178430369448;-0.0910;9.6848;0.9170;
1028178450400548;-0.1269;9.6896;0.8715;
1028178470431681;-0.1341;9.7255;0.8524;
1028178490462814;-0.1437;9.7088;0.8787;
1028178510493880;-0.1724;9.7016;0.8835;
1028178530525013;-0.1844;9.7208;0.8859;
1028178550556146;-0.1939;9.7208;0.8572;
1028178570587212;-0.1868;9.7160;0.8883;
1028178590618312;-0.1796;9.6920;0.8907;
1028178610649478;-0.2083;9.6992;0.8763;
1028178630680644;-0.1772;9.7040;0.8643;
1028178650711744;-0.1628;9.7279;0.8763;
1028178670742844;-0.1389;9.7160;0.8572;
1028178690774710;-0.1341;9.7208;0.8572;
1028178710805810;-0.1365;9.7136;0.8619;
1028178730836876;-0.1245;9.7136;0.8739;
1028178750834509;-0.1245;9.7232;0.8931;
1028178770832109;-0.1149;9.7088;0.8667;
1028178790829609;-0.1197;9.7136;0.8835;
1028178810827109;-0.1389;9.6944;0.8835;
1028178830824609;-0.1149;9.7184;0.8763;
1028178850822809;-0.1245;9.7279;0.8739;
1028178870820542;-0.1508;9.7279;0.8643;
1028178890818742;-0.1700;9.6968;0.8595;
1028178910816242;-0.1748;9.7040;0.8595;
1028178930814375;-0.1772;9.6968;0.8931;
1028178950811808;-0.1868;9.6824;0.8548;
1028178970809308;-0.1844;9.6824;0.8667;
1028178990806808;-0.1628;9.7016;0.8667;
1028179010804274;-0.1508;9.7160;0.8739;
1028179030801807;-0.1484;9.7136;0.8811;
1028179050799340;-0.1484;9.7064;0.8787;
1028179070796806;-0.1413;9.7016;0.8835;
1028179090794272;-0.1317;9.7184;0.8739;
1028179110791805;-0.1101;9.7255;0.8548;
1028179130789338;-0.1125;9.7232;0.8380;
1028179150786804;-0.1317;9.6896;0.8619;
1028179170784337;-0.1484;9.6968;0.8811;
1028179190781837;-0.1484;9.7088;0.8739;
1028179210779303;-0.1652;9.6872;0.8619;
1028179230776803;-0.1700;9.6944;0.8763;
1028179250774436;-0.1724;9.7112;0.8739;
1028179270771369;-0.1652;9.7232;0.8763;
1028179290768235;-0.1748;9.7184;0.8548;
1028179310765868;-0.1724;9.6944;0.9002;
1028179330763501;-0.1748;9.7064;0.8883;
1028179350760434;-0.1484;9.7064;0.8643;
1028179370758000;-0.1508;9.7112;0.8619;
1028179390755633;-0.1389;9.6872;0.8763;
1028179410753266;-0.1317;9.6872;0.8667;
1028179430750832;-0.1389;9.6944;0.8715;
1028179450748398;-0.1269;9.7136;0.8595;
1028179470746031;-0.1006;9.7184;0.8691;
1028179490743664;-0.1077;9.7327;0.8787;
1028179510741230;-0.1293;9.7088;0.8691;
1028179530738863;-0.1461;9.7208;0.8691;
1028179550736496;-0.1245;9.7232;0.8595;
1028179570734062;-0.1293;9.7184;0.8619;
1028179590731628;-0.1604;9.6872;0.8715;
1028179610729228;-0.1652;9.6872;0.8739;
1028179630726861;-0.2035;9.6944;0.8643;
1028179650724427;-0.2083;9.6872;0.8763;
1028179670722060;-0.1844;9.7016;0.8739;
1028179690719693;-0.1796;9.7040;0.8811;
1028179710717259;-0.1532;9.7136;0.8619;
1028179730714825;-0.1556;9.7375;0.8643;
1028179750712458;-0.1389;9.7471;0.8715;
1028179770710091;-0.1365;9.7088;0.8787;
1028179790707657;-0.1365;9.6896;0.8931;
1028179810705257;-0.1508;9.6896;0.8691;
1028179830702823;-0.1197;9.7088;0.8763;
1028179850700323;-0.1221;9.6992;0.8787;
1028179870698456;-0.1365;9.6992;0.8907;
1028179890696656;-0.1437;9.7136;0.8739;
1028179910694156;-0.1245;9.7016;0.8811;
1028179930691589;-0.1461;9.7255;0.8691;
1028179950689722;-0.1748;9.7064;0.8667;
1028179970687222;-0.1628;9.7208;0.8811;
1028179990684722;-0.1484;9.7064;0.8715;
1028180010682155;-0.1484;9.7112;0.8691;
1028180030679688;-0.1652;9.6920;0.8787;
1028180050677221;-0.1796;9.6920;0.8763;
1028180070674687;-0.1604;9.6992;0.8548;
1028180090671453;-0.1652;9.7016;0.8619;
1028180110668986;-0.1508;9.7088;0.8835;
1028180130666519;-0.1389;9.6777;0.8691;
1028180150663985;-0.1245;9.7160;0.8787;
1028180170661518;-0.1437;9.6944;0.8763;
1028180190659051;-0.1532;9.7064;0.8859;
1028180210656584;-0.1341;9.7232;0.8715;
1028180230654017;-0.1317;9.7088;0.8715;
1028180250650817;-0.1341;9.7064;0.8619;
1028180270647417;-0.1341;9.7184;0.8667;
1028180290644350;-0.1484;9.6968;0.8595;
1028180310642083;-0.1604;9.6944;0.8691;
1028180330639849;-0.1676;9.6872;0.8787;
1028180350637682;-0.1796;9.7016;0.8715;
1028180370635448;-0.1652;9.7040;0.8500;
1028180390633281;-0.1508;9.7016;0.8691;
1028180410631114;-0.1676;9.7064;0.8787;
1028180430628880;-0.1389;9.7064;0.8739;
1028180450626646;-0.1556;9.7136;0.8715;
1028180470624479;-0.1437;9.7255;0.8715;
1028180490622312;-0.1245;9.6968;0.8811;
1028180510620078;-0.1269;9.6944;0.9002;
1028180530617911;-0.1413;9.7064;0.8763;
1028180550615744;-0.1389;9.6968;0.8428;
1028180570613510;-0.1149;9.7040;0.8572;
1028180590611276;-0.1413;9.6968;0.8595;
1028180610609109;-0.1413;9.6920;0.8524;
1028180630606909;-0.1461;9.7016;0.8476;
1028180650604642;-0.1365;9.6992;0.8404;
1028180670602442;-0.1437;9.7112;0.8691;
1028180690600942;-0.1628;9.7064;0.8524;
1028180710598742;-0.1604;9.6992;0.8643;
1028180730596475;-0.1413;9.6801;0.8787;
1028180750594308;-0.1604;9.6968;0.8907;
1028180770592141;-0.1508;9.7064;0.8739;
1028180790589907;-0.1389;9.7016;0.8667;
1028180810587673;-0.1413;9.7016;0.9026;
1028180830585506;-0.1580;9.7088;0.8811;
1028180850584039;-0.1556;9.7136;0.8691;
1028180870582705;-0.1461;9.7160;0.8500;
1028180890581038;-0.1532;9.7136;0.8667;
1028180910578638;-0.1604;9.6944;0.8667;
1028180930576138;-0.1580;9.6920;0.8667;
1028180950573571;-0.1484;9.7088;0.8572;
1028180970571071;-0.1437;9.6920;0.8715;
1028180990568571;-0.1221;9.7040;0.8619;
1028181010566004;-0.1389;9.7016;0.8811;
1028181030563504;-0.1461;9.7279;0.8787;
1028181050561004;-0.1389;9.7064;0.8619;
1028181070558437;-0.1484;9.7184;0.9002;
1028181090555870;-0.1508;9.7112;0.8979;
1028181110553370;-0.1341;9.7064;0.8739;
1028181130550870;-0.1628;9.6992;0.8500;
1028181150548336;-0.1532;9.6920;0.8500;
1028181170545869;-0.1724;9.7040;0.8763;
1028181190543402;-0.1628;9.6920;0.8619;
1028181210540935;-0.1461;9.7208;0.8524;
1028181230538401;-0.1389;9.7112;0.8667;
1028181250535934;-0.1508;9.7184;0.8883;
1028181270532767;-0.1389;9.7064;0.8811;
1028181290530233;-0.1269;9.7064;0.8859;
1028181310526999;-0.1269;9.7016;0.8667;
1028181330524532;-0.1413;9.7112;0.8715;
1028181350522032;-0.1461;9.7160;0.8763;
1028181370520065;-0.1317;9.7064;0.8595;
1028181390517698;-0.1293;9.7184;0.8643;
1028181410515331;-0.1341;9.6920;0.8715;
1028181430512897;-0.1437;9.6992;0.8859;
1028181450510463;-0.1556;9.6968;0.8763;
1028181470508096;-0.1676;9.7184;0.8811;
1028181490505729;-0.1652;9.7040;0.8667;
1028181510502595;-0.1508;9.7088;0.8643;
1028181530500228;-0.1700;9.6896;0.8859;
1028181550497861;-0.1484;9.7016;0.8715;
1028181570495427;-0.1413;9.7040;0.8763;
1028181590492993;-0.1437;9.7016;0.8859;
1028181610490626;-0.1245;9.7064;0.8811;
1028181630488259;-0.1053;9.7040;0.8643;
1028181650485825;-0.1101;9.7255;0.8643;
1028181670483458;-0.1317;9.6992;0.8500;
1028181690481091;-0.1437;9.7112;0.8595;
1028181710478724;-0.1508;9.6920;0.8715;
1028181730476290;-0.1748;9.6968;0.8859;
1028181750473890;-0.1796;9.6920;0.8979;
1028181770471490;-0.1604;9.7016;0.8595;
1028181790469056;-0.1461;9.7112;0.8619;
1028181810466622;-0.1772;9.7160;0.8572;
1028181830464255;-0.1556;9.7136;0.8572;
1028181850461888;-0.1365;9.7208;0.8572;
1028181870460154;-0.1532;9.7088;0.8643;
1028181890457787;-0.1413;9.7016;0.8715;
1028181910456120;-0.1221;9.7016;0.8811;
1028181930453686;-0.1077;9.6968;0.8667;
1028181950451252;-0.1149;9.6992;0.8739;
1028181970448285;-0.1365;9.6968;0.8835;
1028181990445785;-0.1413;9.6896;0.8787;
1028182010443218;-0.1293;9.7040;0.8811;
1028182030440718;-0.1317;9.7088;0.8715;
1028182050438218;-0.1269;9.7112;0.8572;
1028182070435651;-0.1461;9.7303;0.8572;
1028182090433084;-0.1556;9.7088;0.8691;
1028182110431284;-0.1820;9.7088;0.8787;
1028182130428784;-0.1748;9.6968;0.8691;
1028182150426217;-0.1652;9.6992;0.8643;
1028182170423717;-0.1652;9.6848;0.8811;
1028182190421250;-0.1604;9.7016;0.8859;
1028182210418783;-0.1461;9.6992;0.8763;
1028182230416249;-0.1437;9.7279;0.8524;
1028182250413082;-0.1437;9.7160;0.8548;
1028182270409915;-0.1149;9.6920;0.8691;
1028182290407381;-0.1461;9.6944;0.8859;
1028182310404147;-0.1652;9.7136;0.8955;
1028182330401680;-0.1365;9.7184;0.8835;
1028182350399213;-0.1604;9.6944;0.8787;
1028182370395979;-0.1772;9.6944;0.8667;
1028182390393479;-0.1580;9.7160;0.8548;
1028182410391012;-0.1245;9.7160;0.8500;
1028182430388645;-0.1413;9.7088;0.8500;
1028182450386311;-0.1461;9.7064;0.8356;
1028182470384077;-0.1413;9.7184;0.8404;
1028182490381877;-0.1580;9.7136;0.8739;
1028182510379677;-0.1915;9.6968;0.8739;
1028182530377543;-0.1844;9.7040;0.8883;
1028182550375409;-0.1748;9.6992;0.8643;
1028182570373209;-0.1556;9.7208;0.8715;
1028182590371009;-0.1245;9.7327;0.8979;
1028182610368875;-0.1269;9.7591;0.8859;
1028182630366741;-0.1341;9.7232;0.8691;
1028182650364541;-0.1317;9.6920;0.8404;
1028182670362407;-0.1461;9.6801;0.8619;
1028182690360273;-0.1532;9.6944;0.8332;
1028182710358139;-0.1437;9.6968;0.8883;
1028182730355939;-0.1293;9.6801;0.9002;
1028182750353805;-0.1556;9.6920;0.8835;
1028182770351671;-0.1700;9.7040;0.8572;
1028182790349437;-0.1341;9.7184;0.8404;
1028182810347203;-0.1484;9.7255;0.8667;
1028182830345036;-0.1149;9.7399;0.8619;
1028182850343602;-0.1269;9.7303;0.8859;
1028182870342102;-0.1245;9.7160;0.9098;
1028182890339968;-0.1317;9.7040;0.9266;
1028182910338534;-0.1365;9.6896;0.8619;
1028182930336334;-0.1365;9.6848;0.8332;
1028182950334134;-0.1604;9.6872;0.8236;
1028182970332700;-0.1724;9.6657;0.8524;
1028182990330566;-0.1772;9.6944;0.8691;
1028183010328332;-0.1915;9.7112;0.8667;
1028183030325998;-0.1939;9.7208;0.8691;
1028183050323631;-0.1652;9.7232;0.8811;
1028183070321164;-0.1604;9.7327;0.8763;
1028183090318664;-0.1628;9.7232;0.8619;
1028183110316164;-0.1293;9.7232;0.8548;
1028183130313664;-0.1245;9.6920;0.8811;
1028183150311097;-0.1077;9.6944;0.8811;
1028183170308597;-0.1125;9.6968;0.8811;
1028183190306097;-0.1149;9.6944;0.8619;
1028183210303597;-0.1221;9.6848;0.8763;
1028183230301030;-0.1484;9.7112;0.8739;
1028183250297863;-0.1676;9.7040;0.8572;
1028183270294696;-0.1700;9.7112;0.8548;
1028183290291462;-0.1724;9.7160;0.8476;
1028183310288928;-0.1748;9.7136;0.8524;
1028183330286461;-0.1532;9.7184;0.8356;
1028183350283294;-0.1532;9.6920;0.8883;
1028183370280760;-0.1628;9.7016;0.8979;
1028183390278293;-0.1748;9.6801;0.8835;
1028183410275826;-0.1508;9.6896;0.8955;
1028183430273292;-0.1604;9.6944;0.9146;
1028183450270725;-0.1293;9.7112;0.8787;
1028183470268225;-0.1365;9.7399;0.8380;
1028183490265725;-0.1221;9.7303;0.8356;
1028183510263291;-0.1006;9.7016;0.8308;
1028183530260991;-0.0910;9.7160;0.8332;
1028183550258724;-0.0958;9.7136;0.8284;
1028183570256490;-0.1269;9.6848;0.8380;
1028183590254256;-0.1796;9.6944;0.8715;
1028183610252089;-0.1891;9.6896;0.8715;
1028183630249922;-0.2083;9.6801;0.9170;
1028183650247688;-0.2227;9.7016;0.9050;
1028183670245521;-0.2179;9.7040;0.9170;
1028183690243354;-0.2131;9.7279;0.9122;
1028183710241187;-0.1676;9.7255;0.8811;
1028183730238953;-0.1700;9.7375;0.8548;
1028183750236786;-0.0910;9.7064;0.9338;
1028183770234619;-0.0311;9.6968;0.9194;
1028183790232385;-0.0407;9.7447;0.8667;
1028183810230151;-0.1580;9.7112;0.8595;
1028183830227984;-0.0910;9.6992;0.8715;
1028183850226484;-0.0790;9.6848;0.8548;
1028183870224917;-0.0694;9.7184;0.8117;
1028183890223417;-0.1077;9.7184;0.8308;
1028183910221217;-0.1173;9.6992;0.9314;
1028183930218950;-0.1820;9.6872;1.0056;
1028183950217383;-0.2801;9.7184;0.9266;
1028183970215216;-0.2921;9.7543;0.8404;
1028183990213049;-0.2466;9.6848;0.8619;
1028184010210815;-0.1245;9.6824;0.8787;
1028184030208648;-0.1556;9.7351;0.8452;
1028184050206481;-0.1365;9.7303;0.8284;
1028184070204247;-0.1580;9.6968;0.9098;
1028184090202013;-0.1915;9.6705;0.9050;
1028184110199713;-0.1796;9.7351;0.8212;
1028184130197346;-0.1341;9.7184;0.7925;
1028184150194879;-0.0215;9.6777;0.8284;
1028184170192379;0.0024;9.6633;0.8500;
1028184190189879;-0.0694;9.6920;0.8117;
1028184210187379;-0.1341;9.7040;0.8021;
1028184230184812;-0.1772;9.6705;0.9218;
1028184250181612;-0.1868;9.6777;0.9146;
1028184270178412;-0.1963;9.7136;0.9002;
1028184290175145;-0.1915;9.7255;0.9170;
1028184310172578;-0.1652;9.7327;0.9386;
1028184330170078;-0.1987;9.7447;0.8883;
1028184350167578;-0.2346;9.7519;0.8548;
1028184370165044;-0.2227;9.7160;0.8715;
1028184390161877;-0.1724;9.6992;0.8428;
1028184410159410;-0.1580;9.6753;0.8356;
1028184430156876;-0.1077;9.6872;0.8595;
1028184450154342;-0.0766;9.6633;0.8572;
1028184470151875;-0.0575;9.6609;0.8907;
1028184490149408;-0.0934;9.6705;0.9026;
1028184510146874;-0.1293;9.7303;0.8955;
1028184530144407;-0.1221;9.7662;0.8236;
1028184550141940;-0.0982;9.7758;0.8715;
1028184570139373;-0.1341;9.7279;0.8595;
1028184590136839;-0.1389;9.7351;0.8787;
1028184610134405;-0.1748;9.6801;0.8835;
1028184630132038;-0.1700;9.6824;0.9026;
1028184650129604;-0.2035;9.6729;0.9026;
1028184670127237;-0.1844;9.6992;0.8787;
1028184690124870;-0.1724;9.6968;0.8595;
1028184710122503;-0.1676;9.7016;0.8787;
1028184730120069;-0.1317;9.7327;0.8308;
1028184750117702;-0.1221;9.7327;0.8332;
1028184770115335;-0.1461;9.7184;0.8619;
1028184790112901;-0.1389;9.7160;0.8811;
1028184810110467;-0.0958;9.7327;0.8572;
1028184830108100;-0.0838;9.7136;0.8404;
1028184850106433;-0.1365;9.6657;0.8979;
1028184870104699;-0.1700;9.6705;0.9242;
1028184890103032;-0.1820;9.7136;0.8572;
1028184910100665;-0.2203;9.7303;0.8284;
1028184930098231;-0.2514;9.6824;0.8931;
1028184950095797;-0.2562;9.7016;0.8811;
1028184970093397;-0.1820;9.7351;0.8212;
1028184990091697;-0.1437;9.7255;0.8595;
1028185010089263;-0.1532;9.6992;0.8715;
1028185030086896;-0.1101;9.7471;0.8667;
1028185050084529;-0.1077;9.7136;0.8428;
1028185070082095;-0.1461;9.6585;0.8859;
1028185090079661;-0.1293;9.6585;0.9409;
1028185110077294;-0.0670;9.7064;0.9026;
1028185130074927;-0.0575;9.7327;0.8883;
1028185150072493;-0.0934;9.7064;0.8619;
1028185170070126;-0.1053;9.7088;0.8308;
1028185190067726;-0.0886;9.7567;0.7997;
1028185210065292;-0.1461;9.7136;0.8260;
1028185230062725;-0.1844;9.6944;0.8595;
1028185250059525;-0.1963;9.7136;0.8595;
1028185270056325;-0.1772;9.7232;0.8476;
1028185290052825;-0.1868;9.7040;0.8907;
1028185310049558;-0.2035;9.6729;0.9050;
1028185330047058;-0.1868;9.6992;0.8979;
1028185350044558;-0.1676;9.7184;0.8715;
1028185370041991;-0.1461;9.7160;0.8979;
1028185390039491;-0.1556;9.7016;0.8835;
1028185410037024;-0.1197;9.7160;0.8595;
1028185430034490;-0.0910;9.7255;0.8428;
1028185450031956;-0.0910;9.6872;0.8548;
1028185470029489;-0.1365;9.7040;0.8907;
1028185490027022;-0.1245;9.7088;0.8595;
1028185510024488;-0.1580;9.7064;0.8452;
1028185530022021;-0.1461;9.7088;0.8643;
1028185550019554;-0.1724;9.7016;0.8595;
1028185570017087;-0.1676;9.7064;0.8428;
1028185590014553;-0.1437;9.7184;0.8859;
1028185610012053;-0.1437;9.6920;0.8691;
1028185630009553;-0.1868;9.6896;0.8643;
1028185650007119;-0.1844;9.7064;0.8715;
1028185670004819;-0.1820;9.6824;0.8955;
1028185690002552;-0.1508;9.7064;0.8883;
1028185710000318;-0.1461;9.6968;0.8667;
1028185729998084;-0.1461;9.7088;0.8595;
1028185749995917;-0.1341;9.7088;0.8380;
1028185769993750;-0.1173;9.6992;0.8524;
1028185789991516;-0.1461;9.7136;0.8452;
1028185809989282;-0.1461;9.7112;0.8500;
1028185829987115;-0.1413;9.6920;0.8787;
1028185849985648;-0.1437;9.6944;0.8667;
1028185869984114;-0.1461;9.7064;0.8643;
1028185889982880;-0.1413;9.6968;0.8619;
1028185909981413;-0.1461;9.6992;0.8835;
1028185929979179;-0.1437;9.7279;0.8667;
1028185949976945;-0.1221;9.7375;0.8667;
1028185969974778;-0.1341;9.7232;0.8739;
1028185989972611;-0.1125;9.7064;0.8643;
1028186009970344;-0.1149;9.7112;0.8691;
1028186029968144;-0.1125;9.7064;0.8643;
1028186049965944;-0.1269;9.6824;0.8883;
1028186069963744;-0.1389;9.6824;0.9050;
1028186089961477;-0.1341;9.6944;0.8835;
1028186109959277;-0.1915;9.6801;0.8739;
1028186129957110;-0.2155;9.7160;0.9074;
1028186149954876;-0.2322;9.7016;0.8907;
1028186169952642;-0.2466;9.7064;0.8380;
1028186189950475;-0.2346;9.7136;0.8524;
1028186209948308;-0.1891;9.7255;0.9002;
1028186229946074;-0.2059;9.7184;0.8883;
1028186249943074;-0.1628;9.7112;0.8595;
1028186269940007;-0.1293;9.7064;0.8595;
1028186289937540;-0.1341;9.7040;0.8715;
1028186309935040;-0.1101;9.7136;0.8428;
1028186329932540;-0.0862;9.7016;0.8524;
1028186349930040;-0.0575;9.7088;0.8548;
1028186369927473;-0.0599;9.7136;0.8595;
1028186389924973;-0.0670;9.7040;0.8212;
1028186409922473;-0.0910;9.7064;0.8356;
1028186429919906;-0.1437;9.6777;0.8619;
1028186449917339;-0.1628;9.7040;0.8955;
1028186469914839;-0.1820;9.6801;0.8715;
1028186489912339;-0.1796;9.6896;0.8931;
1028186509909772;-0.1963;9.6801;0.8835;
1028186529907305;-0.2131;9.7255;0.8931;
1028186549904838;-0.2131;9.7327;0.8572;
1028186569935638;-0.2203;9.7303;0.8572;
1028186589966438;-0.1891;9.7375;0.8691;
1028186609997304;-0.1580;9.7327;0.8524;
1028186630028170;-0.1149;9.7184;0.8524;
1028186650058970;-0.1149;9.6896;0.8715;
1028186670089770;-0.1077;9.6968;0.8619;
1028186690120636;-0.0982;9.6896;0.8667;
1028186710151436;-0.0982;9.7088;0.8763;
1028186730182236;-0.1006;9.6848;0.8763;
1028186750213136;-0.1077;9.6968;0.8739;
1028186770244102;-0.1125;9.7088;0.8500;
1028186790275002;-0.1269;9.6872;0.8619;
1028186810305902;-0.1365;9.7064;0.8955;
1028186830336868;-0.1532;9.6992;0.8955;
1028186850368534;-0.1796;9.7088;0.8548;
1028186870400134;-0.1820;9.7136;0.8619;
1028186890431100;-0.2131;9.7112;0.8763;
1028186910462066;-0.1891;9.7136;0.8548;
1028186930492966;-0.1652;9.7112;0.8643;
1028186950523866;-0.1796;9.6944;0.8691;
1028186970554832;-0.1796;9.6872;0.8739;
1028186990585798;-0.1437;9.6777;0.8691;
1028187010616698;-0.1365;9.6872;0.8787;
1028187030647664;-0.1173;9.6944;0.8667;
1028187050678630;-0.1149;9.7136;0.8667;
1028187070709530;-0.1006;9.7375;0.8595;
1028187090740430;-0.1030;9.7208;0.8548;
1028187110771396;-0.1173;9.7112;0.8548;
1028187130802329;-0.1341;9.6968;0.8643;
1028187150833229;-0.1413;9.7112;0.8500;
1028187170830862;-0.1461;9.7064;0.8643;
1028187190828495;-0.1676;9.7064;0.8667;
1028187210826061;-0.1628;9.6992;0.8691;
1028187230823627;-0.1556;9.7064;0.8715;
1028187250820560;-0.1700;9.6848;0.8787;
1028187270817493;-0.1508;9.7040;0.8883;
1028187290814359;-0.1628;9.7136;0.8643;
1028187310811292;-0.1604;9.7160;0.8643;
1028187330808892;-0.1269;9.7184;0.8715;
1028187350806458;-0.1365;9.7303;0.8619;
1028187370803891;-0.1484;9.7016;0.8667;
1028187390801391;-0.1365;9.7136;0.8619;
1028187410798891;-0.1389;9.7136;0.8619;
1028187430796324;-0.1245;9.6968;0.8763;
1028187450793757;-0.1317;9.6753;0.8572;
1028187470791257;-0.1484;9.6920;0.8643;
1028187490788757;-0.1580;9.7016;0.8691;
1028187510786190;-0.1628;9.6968;0.8595;
1028187530783690;-0.1508;9.7088;0.8859;
1028187550781190;-0.1604;9.6968;0.8715;
1028187570778656;-0.1700;9.7255;0.8907;
1028187590776122;-0.1532;9.7112;0.8667;
1028187610773655;-0.1556;9.6992;0.8619;
1028187630771188;-0.1484;9.7040;0.8715;
1028187650768654;-0.1437;9.6824;0.8715;
1028187670766187;-0.1293;9.6848;0.8667;
1028187690763720;-0.1365;9.6968;0.8548;
1028187710761186;-0.1484;9.6992;0.8619;
1028187730758652;-0.1293;9.6992;0.8524;
1028187750756152;-0.1269;9.7040;0.8691;
1028187770753652;-0.1484;9.7064;0.8643;
1028187790751218;-0.1532;9.6968;0.8715;
1028187810748918;-0.1461;9.7088;0.8883;
1028187830746651;-0.1580;9.7064;0.8763;
1028187850745117;-0.1484;9.7064;0.8691;
1028187870743617;-0.1556;9.6992;0.8643;
1028187890742183;-0.1532;9.6920;0.8572;
1028187910740749;-0.1461;9.7088;0.8691;
1028187930738549;-0.1413;9.6896;0.8787;
1028187950736349;-0.1461;9.7064;0.8619;
1028187970734215;-0.1532;9.7016;0.8524;
1028187990732081;-0.1293;9.7136;0.8691;
1028188010729881;-0.1293;9.6968;0.8835;
1028188030727747;-0.1413;9.6992;0.8643;
1028188050725613;-0.1365;9.7232;0.8715;
1028188070723413;-0.1413;9.7040;0.8619;
1028188090721213;-0.1484;9.7040;0.8691;
1028188110719079;-0.1652;9.7064;0.8619;
1028188130716945;-0.1652;9.7208;0.8907;
1028188150714745;-0.1556;9.7064;0.8835;
1028188170712578;-0.1628;9.7040;0.8763;
1028188190710411;-0.1556;9.7184;0.8739;
1028188210708211;-0.1676;9.7040;0.8787;
1028188230706011;-0.1676;9.7136;0.8715;
1028188250703177;-0.1413;9.7160;0.8572;
1028188270700410;-0.1413;9.6968;0.8739;
1028188290697276;-0.1437;9.7088;0.8643;
1028188310695142;-0.1365;9.7112;0.8643;
1028188330693008;-0.1293;9.7064;0.8452;
1028188350690174;-0.1437;9.7064;0.8643;
1028188370687974;-0.1484;9.7064;0.8691;
1028188390685707;-0.1341;9.7064;0.8643;
1028188410683373;-0.1389;9.7232;0.8643;
1028188430680939;-0.1269;9.7088;0.8619;
1028188450678472;-0.1413;9.7160;0.8763;
1028188470675972;-0.1676;9.7112;0.8739;
1028188490673472;-0.1772;9.6992;0.8859;
1028188510670905;-0.1532;9.7112;0.8787;
1028188530668405;-0.1628;9.7136;0.8619;
1028188550665905;-0.1700;9.7279;0.8572;
1028188570663338;-0.1484;9.7351;0.8643;
1028188590660771;-0.1437;9.7112;0.8715;
1028188610658271;-0.1532;9.6848;0.8643;
1028188630655804;-0.1484;9.6896;0.8835;
1028188650653270;-0.1891;9.6872;0.8739;
1028188670650803;-0.1963;9.6968;0.8188;
1028188690648336;-0.1269;9.7255;0.8117;
1028188710645869;-0.1365;9.7615;0.8452;
1028188730643335;-0.1317;9.7136;0.7518;
1028188750640868;-0.1006;9.7136;0.8595;
1028188770638401;-0.1173;9.7232;0.8787;
1028188790635867;-0.1269;9.6872;0.8572;
1028188810633367;-0.1389;9.6824;0.9146;
1028188830630867;-0.1149;9.6896;0.9362;
1028188850629067;-0.1437;9.7351;0.9122;
1028188870627167;-0.1508;9.7639;0.8907;
1028188890625733;-0.1413;9.7399;0.9194;
1028188910623433;-0.1580;9.7136;0.9050;
1028188930621133;-0.1700;9.7279;0.8835;
1028188950619599;-0.1963;9.7064;0.8715;
1028188970617432;-0.2179;9.6801;0.8715;
1028188990615265;-0.2251;9.6657;0.8619;
1028189010613031;-0.1891;9.6944;0.8356;
1028189030610864;-0.1389;9.7208;0.8356;
1028189050608697;-0.1173;9.7208;0.8619;
1028189070606463;-0.0958;9.7136;0.8548;
1028189090604229;-0.1125;9.7040;0.8667;
1028189110602062;-0.1149;9.7112;0.8619;
1028189130599895;-0.1149;9.7136;0.8763;
1028189150597661;-0.1053;9.7112;0.8643;
1028189170595494;-0.1053;9.7160;0.8691;
1028189190593327;-0.1030;9.7232;0.8787;
1028189210591160;-0.1269;9.7184;0.8667;
1028189230588893;-0.1580;9.7136;0.8739;
1028189250587093;-0.1796;9.7040;0.8595;
1028189270583959;-0.1820;9.6968;0.8500;
1028189290580992;-0.1868;9.7016;0.8643;
1028189310578725;-0.1891;9.7040;0.8548;
1028189330576525;-0.1915;9.7184;0.8548;
1028189350573925;-0.1796;9.7112;0.8643;
1028189370571691;-0.1891;9.7160;0.8691;
1028189390569524;-0.1772;9.7088;0.8595;
1028189410567357;-0.1748;9.7208;0.8835;
1028189430565123;-0.1580;9.6848;0.8739;
1028189450562889;-0.1341;9.6896;0.8811;
1028189470560689;-0.1245;9.6777;0.8787;
1028189490558389;-0.0838;9.7136;0.8643;
1028189510555955;-0.0814;9.7088;0.8619;
1028189530553521;-0.0862;9.6992;0.8595;
1028189550551021;-0.0862;9.7255;0.8404;
1028189570548454;-0.0958;9.7255;0.8308;
1028189590545887;-0.1125;9.7184;0.8452;
1028189610543387;-0.1293;9.7303;0.8476;
1028189630540887;-0.1580;9.7088;0.8500;
1028189650538320;-0.1891;9.7160;0.8787;
1028189670535820;-0.1915;9.6968;0.9074;
1028189690533320;-0.2083;9.7064;0.8955;
1028189710530820;-0.2346;9.6920;0.8883;
1028189730528253;-0.2394;9.6848;0.8811;
1028189750525786;-0.2394;9.7016;0.8691;
1028189770523319;-0.1915;9.7471;0.8619;
1028189790520785;-0.1556;9.7208;0.8332;
1028189810518251;-0.1341;9.7136;0.8476;
1028189830515784;-0.1293;9.7112;0.8428;
1028189850512917;-0.0886;9.7040;0.8524;
1028189870511317;-0.0910;9.7088;0.8715;
1028189890509550;-0.0934;9.6992;0.8715;
1028189910507083;-0.0790;9.6872;0.8667;
1028189930504549;-0.0838;9.6896;0.8763;
1028189950502415;-0.0958;9.6896;0.8643;
1028189970499948;-0.1341;9.7088;0.8643;
1028189990497514;-0.1437;9.7279;0.8524;
1028190010495080;-0.1915;9.7255;0.8476;
1028190030492713;-0.1891;9.7112;0.8619;
1028190050490346;-0.1820;9.7040;0.8691;
1028190070487912;-0.1796;9.7040;0.8619;
1028190090485478;-0.1987;9.7016;0.8835;
1028190110483111;-0.2083;9.6896;0.8835;
1028190130480744;-0.2059;9.7016;0.8763;
1028190150478310;-0.1868;9.6944;0.8859;
1028190170475943;-0.1532;9.7016;0.8691;
1028190190473576;-0.1532;9.7088;0.8643;
1028190210471209;-0.1030;9.7112;0.8548;
1028190230468775;-0.0982;9.7040;0.8619;
1028190250465708;-0.0934;9.7184;0.8500;
1028190270462641;-0.0862;9.7208;0.8643;
1028190290459507;-0.0838;9.7088;0.8548;
1028190310456373;-0.1006;9.7112;0.8500;
1028190330454006;-0.1125;9.6920;0.8739;
1028190350451606;-0.1461;9.6992;0.8595;
1028190370448472;-0.1604;9.7160;0.8739;
1028190390446105;-0.1700;9.7040;0.8524;
1028190410443738;-0.1772;9.7088;0.8739;
1028190430441304;-0.1891;9.7016;0.8595;
1028190450438870;-0.2035;9.7184;0.8691;
1028190470436503;-0.1987;9.7064;0.8859;
1028190490434136;-0.1820;9.7040;0.8715;
1028190510431702;-0.1724;9.7136;0.8667;
1028190530429335;-0.1389;9.7064;0.8739;
1028190550426968;-0.1197;9.7088;0.8787;
1028190570424501;-0.1221;9.6944;0.8595;
1028190590422001;-0.1149;9.7016;0.8667;
1028190610419501;-0.1125;9.6848;0.8715;
1028190630417001;-0.1053;9.7279;0.8715;
1028190650414434;-0.0958;9.7327;0.8428;
1028190670411934;-0.1173;9.7160;0.8452;
1028190690409434;-0.1389;9.7016;0.8619;
1028190710406934;-0.1676;9.7184;0.8572;
1028190730404367;-0.1844;9.6920;0.8715;
1028190750401867;-0.1748;9.7040;0.8643;
1028190770399367;-0.1915;9.7136;0.8667;
1028190790396833;-0.1987;9.6896;0.8691;
1028190810394633;-0.1891;9.7040;0.8667;
1028190830392166;-0.1772;9.7232;0.8691;
1028190850390399;-0.1748;9.6992;0.8643;
1028190870388565;-0.1580;9.7208;0.8691;
1028190890386798;-0.1341;9.7160;0.8548;
1028190910385031;-0.1293;9.7088;0.8619;
1028190930382497;-0.1221;9.6896;0.8667;
1028190950379963;-0.1365;9.6968;0.8619;
1028190970378163;-0.1149;9.6872;0.8595;
1028190990375663;-0.1293;9.7088;0.8715;
1028191010373129;-0.1173;9.7112;0.8715;
1028191030370762;-0.1389;9.7136;0.8691;
1028191050368462;-0.1389;9.6872;0.8619;
1028191070366162;-0.1580;9.7112;0.8715;
1028191090363928;-0.1604;9.6992;0.8715;
1028191110361761;-0.1580;9.7208;0.8548;
1028191130359594;-0.1508;9.7232;0.8667;
1028191150357360;-0.1748;9.7064;0.8595;
1028191170355193;-0.1676;9.7112;0.8572;
1028191190353026;-0.1676;9.7064;0.8763;
1028191210350859;-0.1580;9.6992;0.8619;
1028191230348625;-0.1556;9.6944;0.8500;
1028191250345758;-0.1461;9.7016;0.8595;
1028191270342891;-0.1437;9.7088;0.8548;
1028191290340657;-0.1173;9.7208;0.8739;
1028191310337723;-0.1341;9.7088;0.8619;
1028191330335556;-0.1365;9.7160;0.8572;
1028191350332689;-0.1221;9.7232;0.8572;
1028191370330455;-0.1413;9.7040;0.8548;
1028191390328255;-0.1508;9.7016;0.8667;
1028191410325721;-0.1532;9.6896;0.8595;
1028191430323454;-0.1604;9.6992;0.8619;
1028191450321187;-0.1508;9.7136;0.8595;
1028191470318987;-0.1676;9.7040;0.8739;
1028191490316787;-0.1604;9.6968;0.8572;
1028191510314553;-0.1748;9.7112;0.8835;
1028191530312386;-0.1604;9.7064;0.8667;
1028191550310219;-0.1652;9.7040;0.8619;
1028191570307985;-0.1700;9.7112;0.8619;
1028191590305751;-0.1484;9.6992;0.8619;
1028191610303551;-0.1437;9.6992;0.8595;
1028191630301251;-0.1221;9.7136;0.8572;
1028191650298817;-0.1580;9.7112;0.8572;
1028191670296383;-0.1269;9.6992;0.8643;
1028191690293883;-0.1341;9.7064;0.8715;
1028191710291383;-0.1341;9.7088;0.8787;
1028191730288816;-0.1245;9.6944;0.8548;
1028191750286316;-0.1580;9.6896;0.8643;
1028191770283816;-0.1437;9.7112;0.8643;
1028191790281249;-0.1628;9.7136;0.8715;
1028191810278682;-0.1676;9.7112;0.8548;
1028191830276182;-0.1652;9.6848;0.8643;
1028191850274382;-0.1676;9.6824;0.8548;
1028191870272515;-0.1844;9.6992;0.8787;
1028191890270015;-0.1580;9.6920;0.8572;
1028191910268248;-0.1604;9.6848;0.8715;
1028191930265714;-0.1532;9.7016;0.8691;
1028191950263880;-0.1461;9.7184;0.8619;
1028191970261413;-0.1532;9.7064;0.8667;
1028191990258946;-0.1389;9.7088;0.8619;
1028192010256412;-0.1389;9.7088;0.8643;
1028192030253945;-0.1293;9.7160;0.8667;
1028192050251478;-0.1221;9.7064;0.8572;
1028192070248944;-0.1365;9.7040;0.8595;
1028192090246410;-0.1221;9.7064;0.8524;
1028192110243943;-0.1173;9.7040;0.8572;
1028192130241509;-0.1317;9.7088;0.8476;
1028192150239075;-0.1461;9.6968;0.8548;
1028192170236708;-0.1532;9.7208;0.8667;
1028192190234341;-0.1532;9.7040;0.8643;
1028192210231974;-0.1772;9.7064;0.8595;
1028192230229540;-0.1604;9.6968;0.8667;
1028192250226473;-0.1724;9.6920;0.8739;
1028192270223406;-0.1580;9.6848;0.8667;
1028192290220272;-0.1604;9.7303;0.8739;
1028192310218905;-0.1556;9.6944;0.8595;
1028192330216538;-0.1532;9.7040;0.8691;
1028192350214004;-0.1365;9.7016;0.8619;
1028192370211570;-0.1461;9.7016;0.8572;
1028192390209203;-0.1437;9.7136;0.8667;
1028192410206836;-0.1508;9.7064;0.8572;
1028192430204402;-0.1556;9.7088;0.8572;
1028192450201968;-0.1484;9.7112;0.8811;
1028192470199601;-0.1532;9.7016;0.8619;
1028192490197234;-0.1580;9.6968;0.8715;
1028192510194767;-0.1532;9.7016;0.8787;
1028192530192400;-0.1580;9.6992;0.8787;
1028192550190033;-0.1580;9.7064;0.8572;
1028192570187599;-0.1676;9.7016;0.8691;
1028192590185165;-0.1532;9.6992;0.8859;
1028192610182798;-0.1604;9.7136;0.8619;
1028192630180431;-0.1628;9.7136;0.8667;
1028192650177997;-0.1461;9.7112;0.8619;
1028192670175630;-0.1580;9.7136;0.8667;
1028192690173263;-0.1365;9.7112;0.8619;
1028192710170863;-0.1437;9.7016;0.8739;
1028192730168363;-0.1317;9.6896;0.8691;
1028192750165863;-0.1508;9.7016;0.8524;
1028192770163363;-0.1413;9.7255;0.8787;
1028192790160796;-0.1317;9.7112;0.8595;
1028192810158229;-0.1604;9.7112;0.8548;
1028192830155729;-0.1389;9.7136;0.8667;
1028192850153929;-0.1532;9.7160;0.8643;
1028192870152062;-0.1604;9.7184;0.8548;
1028192890150262;-0.1413;9.7016;0.8619;
1028192910146695;-0.1508;9.6896;0.8643;
1028192930144161;-0.1748;9.7016;0.8643;
1028192950141794;-0.1652;9.7112;0.8667;
1028192970139327;-0.1532;9.7136;0.8667;
1028192990136860;-0.1556;9.7016;0.8500;
1028193010134326;-0.1532;9.7112;0.8619;
1028193030131859;-0.1556;9.7160;0.8595;
1028193050129392;-0.1461;9.6944;0.8548;
1028193070126858;-0.1413;9.6968;0.8787;
1028193090124324;-0.1389;9.7064;0.8500;
1028193110121857;-0.1341;9.6992;0.8715;
1028193130119357;-0.1197;9.7016;0.8643;
1028193150116823;-0.1389;9.6992;0.8595;
1028193170114456;-0.1772;9.7016;0.8595;
1028193190112156;-0.1484;9.7112;0.8715;
1028193210109889;-0.1437;9.7088;0.8595;
1028193230107622;-0.1389;9.7136;0.8763;
1028193250104788;-0.1628;9.7136;0.8667;
1028193270101954;-0.1508;9.6992;0.8715;
1028193290099054;-0.1556;9.7184;0.8572;
1028193310096854;-0.1532;9.7040;0.8548;
1028193330094720;-0.1604;9.7064;0.8548;
1028193350092586;-0.1484;9.7016;0.8595;
1028193370090386;-0.1413;9.7064;0.8595;
1028193390088252;-0.1748;9.7016;0.8548;
1028193410086118;-0.1580;9.6968;0.8619;
1028193430083918;-0.1341;9.7184;0.8667;
1028193450081718;-0.1508;9.7040;0.8428;
1028193470079584;-0.1389;9.7136;0.8619;
1028193490077450;-0.1484;9.7040;0.8667;
1028193510075250;-0.1413;9.6944;0.8691;
1028193530073083;-0.1269;9.6992;0.8548;
1028193550070916;-0.1413;9.7208;0.8691;
1028193570068682;-0.1532;9.7208;0.8667;
1028193590066482;-0.1461;9.7160;0.8643;
1028193610064348;-0.1532;9.6968;0.8619;
1028193630062214;-0.1532;9.7040;0.8643;
1028193650060014;-0.1628;9.7160;0.8595;
1028193670057880;-0.1604;9.7064;0.8595;
1028193690055746;-0.1556;9.6801;0.8548;
1028193710053612;-0.1413;9.7064;0.8404;
1028193730051412;-0.1484;9.6992;0.8572;
1028193750049245;-0.1484;9.7088;0.8763;
1028193770046978;-0.1389;9.6992;0.8667;
1028193790044578;-0.1484;9.6920;0.8739;
1028193810042144;-0.1628;9.6992;0.8835;
1028193830039710;-0.1413;9.6968;0.8763;
1028193850037910;-0.1413;9.7112;0.8715;
1028193870036043;-0.1437;9.6992;0.8572;
1028193890034243;-0.1413;9.7112;0.8667;
1028193910031743;-0.1556;9.6944;0.8572;
1028193930029176;-0.1484;9.7112;0.8572;
1028193950026609;-0.1796;9.6944;0.8524;
1028193970024109;-0.1437;9.7016;0.8500;
1028193990021609;-0.1556;9.6944;0.8715;
1028194010019075;-0.1604;9.6992;0.8739;
1028194030016608;-0.1461;9.7088;0.8595;
1028194050014141;-0.1604;9.7016;0.8715;
1028194070011674;-0.1580;9.7088;0.8572;
1028194090009140;-0.1341;9.7040;0.8715;
1028194110006673;-0.1508;9.7064;0.8667;
1028194130004206;-0.1389;9.7016;0.8595;
1028194150001672;-0.1556;9.6992;0.8572;
1028194169999205;-0.1461;9.7064;0.8619;
1028194189996705;-0.1580;9.6968;0.8524;
1028194209994205;-0.1604;9.6896;0.8715;
1028194229991638;-0.1628;9.7136;0.8595;
1028194249988471;-0.1413;9.6920;0.8500;
1028194269985404;-0.1461;9.7136;0.8595;
1028194289982370;-0.1389;9.6992;0.8595;
1028194309980070;-0.1676;9.6968;0.8619;
1028194329977903;-0.1652;9.7064;0.8691;
1028194349975736;-0.1365;9.7064;0.8691;
1028194369972802;-0.1508;9.7064;0.8667;
1028194389970635;-0.1437;9.7016;0.8643;
1028194409968468;-0.1365;9.7040;0.8548;
1028194429966234;-0.1389;9.7016;0.8595;
1028194449964000;-0.1437;9.7064;0.8715;
1028194469961833;-0.1508;9.7040;0.8572;
1028194489959666;-0.1556;9.7064;0.8643;
1028194509957432;-0.1365;9.7160;0.8715;
1028194529955265;-0.1413;9.6848;0.8691;
1028194549953098;-0.1652;9.7088;0.8691;
1028194569950931;-0.1341;9.6992;0.8595;
1028194589948697;-0.1556;9.7088;0.8667;
1028194609946497;-0.1461;9.7136;0.8691;
1028194629944297;-0.1461;9.7160;0.8667;
1028194649942030;-0.1389;9.7064;0.8643;
1028194669939763;-0.1484;9.7040;0.8572;
1028194689937563;-0.1461;9.7160;0.8500;
1028194709935363;-0.1437;9.7088;0.8524;
1028194729933129;-0.1461;9.7064;0.8715;
1028194749930962;-0.1580;9.7064;0.8667;
1028194769928795;-0.1413;9.7016;0.8763;
1028194789926561;-0.1341;9.7016;0.8739;
1028194809924327;-0.1413;9.6992;0.8835;
1028194829922160;-0.1532;9.7040;0.8883;
1028194849920660;-0.1413;9.7232;0.8739;
1028194869918993;-0.1461;9.7160;0.8524;
1028194889917293;-0.1604;9.7064;0.8548;
1028194909914859;-0.1484;9.7208;0.8619;
1028194929912292;-0.1556;9.7255;0.8476;
1028194949909725;-0.1556;9.7040;0.8572;
1028194969907925;-0.1484;9.7016;0.8452;
1028194989905425;-0.1532;9.6968;0.8667;
1028195009902858;-0.1484;9.6920;0.8595;
1028195029900358;-0.1437;9.7064;0.8548;
1028195049897858;-0.1437;9.7040;0.8667;
1028195069895358;-0.1580;9.7136;0.8667;
1028195089892791;-0.1413;9.6920;0.8643;
1028195109890291;-0.1413;9.6992;0.8739;
1028195129887824;-0.1389;9.7136;0.8691;
1028195149885290;-0.1365;9.7088;0.8572;
1028195169882756;-0.1580;9.7112;0.8643;
1028195189880289;-0.1580;9.6944;0.8667;
1028195209877822;-0.1413;9.6968;0.8524;
1028195229875288;-0.1652;9.6944;0.8691;
1028195249872121;-0.1437;9.6848;0.8595;
1028195269868954;-0.1413;9.7160;0.8667;
1028195289866420;-0.1532;9.7088;0.8548;
1028195309863886;-0.1461;9.7016;0.8572;
1028195329860952;-0.1437;9.7088;0.8643;
1028195349858485;-0.1461;9.7136;0.8595;
1028195369856051;-0.1437;9.7160;0.8739;
1028195389853684;-0.1484;9.7279;0.8595;
1028195409851317;-0.1389;9.7184;0.8691;
1028195429848883;-0.1484;9.6872;0.8643;
1028195449846449;-0.1461;9.6968;0.8667;
1028195469844082;-0.1437;9.7016;0.8595;
1028195489841715;-0.1508;9.7112;0.8643;
1028195509839281;-0.1413;9.6992;0.8691;
1028195529836914;-0.1437;9.7160;0.8548;
1028195549834547;-0.1317;9.6992;0.8667;
1028195569832180;-0.1484;9.7208;0.8691;
1028195589829746;-0.1652;9.7208;0.8787;
1028195609827379;-0.1604;9.7160;0.8715;
1028195629825012;-0.1532;9.6920;0.8595;
1028195649822578;-0.1532;9.7088;0.8667;
1028195669820144;-0.1293;9.6872;0.8739;
1028195689817777;-0.1508;9.6992;0.8619;
1028195709815410;-0.1580;9.7064;0.8524;
1028195729812943;-0.1508;9.7040;0.8548;
1028195749810743;-0.1628;9.7064;0.8643;
1028195769808376;-0.1437;9.7112;0.8619;
1028195789805942;-0.1604;9.7184;0.8572;
1028195809803508;-0.1556;9.7232;0.8691;
1028195829801141;-0.1676;9.7112;0.8595;
1028195849799474;-0.1437;9.7136;0.8787;
1028195869797740;-0.1484;9.7208;0.8667;
1028195889795373;-0.1484;9.7088;0.8787;
1028195909793006;-0.1461;9.7088;0.8787;
1028195929791006;-0.1484;9.7016;0.8739;
1028195949788539;-0.1484;9.6944;0.8715;
1028195969786039;-0.1580;9.7088;0.8763;
1028195989783539;-0.1676;9.7088;0.8548;
1028196009780972;-0.1437;9.7064;0.8476;
1028196029778472;-0.1532;9.7088;0.8572;
1028196049775972;-0.1628;9.6920;0.8572;
1028196069773472;-0.1556;9.7208;0.8619;
1028196089770905;-0.1413;9.7160;0.8691;
1028196109768405;-0.1365;9.6944;0.8667;
1028196129765905;-0.1461;9.6992;0.8763;
1028196149763371;-0.1604;9.6920;0.8715;
1028196169760837;-0.1389;9.6968;0.8763;
1028196189758370;-0.1532;9.7064;0.8739;
1028196209755903;-0.1365;9.7112;0.8595;
1028196229753369;-0.1365;9.7160;0.8691;
1028196249784235;-0.1341;9.7184;0.8715;
1028196269814401;-0.1556;9.7040;0.8643;
1028196289845201;-0.1413;9.7208;0.8763;
1028196309876001;-0.1508;9.7040;0.8619;
1028196329906867;-0.1461;9.7040;0.8667;
1028196349937533;-0.1484;9.6968;0.8619;
1028196369968299;-0.1580;9.7255;0.8524;
1028196389999165;-0.1604;9.6992;0.8715;
1028196410030131;-0.1484;9.6968;0.8643;
1028196430061131;-0.1556;9.7088;0.8619;
1028196450092164;-0.1652;9.7255;0.8691;
1028196470122630;-0.1604;9.7112;0.8619;
1028196490153796;-0.1437;9.7136;0.8835;
1028196510184896;-0.1484;9.7208;0.8643;
1028196530216062;-0.1389;9.7040;0.8715;
1028196550247228;-0.1484;9.7208;0.8787;
1028196570278328;-0.1508;9.7208;0.8691;
1028196590309428;-0.1413;9.7040;0.8739;
1028196610340594;-0.1580;9.7064;0.8715;
1028196630371760;-0.1437;9.7064;0.8739;
1028196650402860;-0.1461;9.7088;0.8715;
1028196670433960;-0.1532;9.7303;0.8787;
1028196690465126;-0.1461;9.7136;0.8859;
1028196710496226;-0.1628;9.7184;0.8763;
1028196730527326;-0.1508;9.7184;0.8763;
1028196750558459;-0.1389;9.6992;0.8787;
1028196770589592;-0.1532;9.6992;0.8811;
1028196790620658;-0.1389;9.7208;0.8787;
1028196810651724;-0.1365;9.7064;0.8619;
1028196830682857;-0.1437;9.7112;0.8572;
1028196850680657;-0.1532;9.7088;0.8739;
1028196870679123;-0.1461;9.7016;0.8811;
1028196890676956;-0.1556;9.7232;0.8667;
1028196910674789;-0.1365;9.7303;0.8739;
1028196930672555;-0.1556;9.7327;0.8691;
1028196950670321;-0.1628;9.7088;0.8595;
1028196970668154;-0.1484;9.6992;0.8763;
1028196990665954;-0.1508;9.7088;0.8643;
1028197010663587;-0.1293;9.7064;0.8715;
1028197030661187;-0.1437;9.7160;0.8715;
1028197050658753;-0.1365;9.7040;0.8763;
1028197070656886;-0.1604;9.6968;0.8691;
1028197090654319;-0.1365;9.7208;0.8667;
1028197110651819;-0.1437;9.7016;0.8643;
1028197130649319;-0.1365;9.7064;0.8859;
1028197150646752;-0.1532;9.7040;0.8691;
1028197170644252;-0.1461;9.7088;0.8931;
1028197190641752;-0.1389;9.7064;0.8811;
1028197210639252;-0.1461;9.7136;0.8595;
1028197230636685;-0.1484;9.6992;0.8691;
1028197250633451;-0.1317;9.7088;0.8691;
1028197270663584;-0.1437;9.6992;0.8572;
1028197290694750;-0.1484;9.6896;0.8691;
1028197310725616;-0.1461;9.7040;0.8763;
1028197330756482;-0.1484;9.7088;0.8835;
1028197350787282;-0.1628;9.7040;0.8739;
1028197370817382;-0.1580;9.7112;0.8715;
1028197390848248;-0.1341;9.7040;0.8715;
1028197410879114;-0.1437;9.7136;0.8931;
1028197430909914;-0.1484;9.7016;0.8787;
1028197450940714;-0.1437;9.7232;0.8595;
1028197470971547;-0.1556;9.7184;0.8715;
1028197491002413;-0.1508;9.7112;0.9026;
1028197511033313;-0.1461;9.7136;0.8883;
1028197531064279;-0.1508;9.6968;0.8667;
1028197551095245;-0.1365;9.7112;0.8643;
1028197571126145;-0.1461;9.7088;0.8619;
1028197591157078;-0.1484;9.7064;0.8763;
1028197611188044;-0.1532;9.7040;0.8907;
1028197631219010;-0.1532;9.7088;0.8907;
1028197651249910;-0.1628;9.7040;0.8811;
1028197671280876;-0.1484;9.7040;0.8811;
1028197691311842;-0.1484;9.7160;0.8811;
1028197711342742;-0.1484;9.7184;0.8715;
1028197731373642;-0.1604;9.7232;0.8739;
1028197751404608;-0.1556;9.6968;0.8691;
1028197771435574;-0.1437;9.7088;0.8619;
1028197791466474;-0.1748;9.7208;0.8835;
1028197811497374;-0.1532;9.7184;0.8715;
1028197831528340;-0.1461;9.7016;0.8715;
1028197851559973;-0.1317;9.7136;0.8739;
1028197871558239;-0.1365;9.7160;0.8835;
1028197891555472;-0.1365;9.7016;0.8763;
1028197911553105;-0.1700;9.7088;0.8787;
1028197931550671;-0.1580;9.7040;0.8739;
1028197951548304;-0.1341;9.7160;0.8859;
1028197971579970;-0.1580;9.7184;0.8859;
1028197991610870;-0.1413;9.7160;0.8835;
1028198011675103;-0.1628;9.7112;0.8739;
1028198031739403;-0.1556;9.7088;0.8643;
1028198051803703;-0.1604;9.6992;0.8595;
1028198071867936;-0.1437;9.7136;0.8739;
1028198091932136;-0.1413;9.7064;0.8667;
1028198111996302;-0.1556;9.6968;0.8715;
1028198132060402;-0.1365;9.7232;0.8643;
1028198152124502;-0.1532;9.7184;0.8691;
1028198172188668;-0.1389;9.7016;0.8787;
1028198192252801;-0.1413;9.7112;0.8859;
1028198212316901;-0.1556;9.6992;0.8859;
1028198232381001;-0.1389;9.7112;0.8739;
1028198252444467;-0.1556;9.7375;0.8931;
1028198272507867;-0.1389;9.7136;0.8667;
1028198292571367;-0.1652;9.7088;0.8811;
1028198312635567;-0.1461;9.6992;0.8763;
1028198332699767;-0.1628;9.6920;0.8667;
1028198352763900;-0.1508;9.6968;0.8763;
1028198372827333;-0.1532;9.7112;0.8715;
1028198392891533;-0.1389;9.6992;0.8763;
1028198412955733;-0.1484;9.6992;0.8691;
1028198433019866;-0.1389;9.7040;0.8691;
1028198453084066;-0.1580;9.7064;0.8619;
1028198473148266;-0.1365;9.7160;0.8835;
1028198493212399;-0.1365;9.7184;0.8835;
1028198513276499;-0.1365;9.7112;0.8811;
1028198533340699;-0.1413;9.7064;0.8859;
1028198553404999;-0.1269;9.6968;0.8715;
1028198573435999;-0.1365;9.7088;0.8739;
1028198593467099;-0.1413;9.7136;0.8715;
1028198613464899;-0.1461;9.7112;0.8572;
1028198633462699;-0.1580;9.6968;0.8811;
1028198653460499;-0.1676;9.7136;0.8787;
1028198673458365;-0.1532;9.7040;0.8667;
1028198693456231;-0.1676;9.7160;0.8715;
1028198713454031;-0.1604;9.6920;0.8835;
1028198733451897;-0.1437;9.7112;0.8643;
1028198753449763;-0.1293;9.7088;0.8835;
1028198773447563;-0.1484;9.7160;0.8691;
1028198793445363;-0.1389;9.7040;0.8739;
1028198813443229;-0.1676;9.7160;0.8667;
1028198833441095;-0.1461;9.6920;0.8691;
1028198853439595;-0.1484;9.7136;0.8787;
1028198873438161;-0.1604;9.7088;0.8691;
1028198893436627;-0.1365;9.7136;0.8763;
1028198913434460;-0.1365;9.7160;0.8643;
1028198933432226;-0.1437;9.7136;0.8667;
1028198953430059;-0.1532;9.7064;0.8787;
1028198973428625;-0.1604;9.6968;0.8763;
1028198993426425;-0.1676;9.7016;0.8715;
1028199013424225;-0.1556;9.7016;0.8763;
1028199033422091;-0.1532;9.6992;0.8859;
1028199053419957;-0.1508;9.7112;0.8691;
1028199073417757;-0.1317;9.7040;0.8811;
1028199093415623;-0.1461;9.7112;0.8763;
1028199113413489;-0.1508;9.7112;0.8691;
1028199133411255;-0.1556;9.7088;0.8476;
1028199153408921;-0.1389;9.7088;0.8739;
1028199173406554;-0.1484;9.7088;0.8691;
1028199193404154;-0.1317;9.7160;0.8715;
1028199213401654;-0.1508;9.7136;0.8691;
1028199233399154;-0.1461;9.7064;0.8811;
1028199253395954;-0.1532;9.7040;0.8883;
1028199273392687;-0.1484;9.6872;0.8811;
1028199293389420;-0.1556;9.7064;0.8739;
1028199313386920;-0.1676;9.6944;0.8715;
1028199333384420;-0.1652;9.7184;0.8572;
1028199353381853;-0.1484;9.6992;0.8715;
1028199373378686;-0.1628;9.7136;0.8572;
1028199393376219;-0.1676;9.7088;0.8643;
1028199413373752;-0.1508;9.7112;0.8715;
1028199433371218;-0.1341;9.7160;0.8595;
1028199453368751;-0.1532;9.7136;0.8619;
1028199473366284;-0.1484;9.7088;0.8739;
1028199493363750;-0.1437;9.7112;0.8763;
1028199513361216;-0.1461;9.7160;0.8715;
1028199533358749;-0.1437;9.6920;0.8811;
1028199553356282;-0.1484;9.7088;0.8787;
1028199573353715;-0.1389;9.6896;0.8715;
1028199593351215;-0.1461;9.7136;0.8763;
1028199613382048;-0.1389;9.7064;0.8595;
1028199633412948;-0.1820;9.7255;0.8859;
1028199653443914;-0.1508;9.7255;0.8667;
1028199673474980;-0.1461;9.7112;0.8619;
1028199693506080;-0.1628;9.6944;0.8572;
1028199713537180;-0.1580;9.6920;0.8811;
1028199733568346;-0.1413;9.6968;0.8787;
1028199753599512;-0.1484;9.7016;0.8739;
1028199773630612;-0.1508;9.6992;0.8883;
1028199793661712;-0.1461;9.6968;0.8811;
1028199813692878;-0.1556;9.7088;0.8739;
1028199833724044;-0.1317;9.7016;0.8643;
1028199853755844;-0.1413;9.7136;0.8763;
1028199873787710;-0.1628;9.7160;0.8667;
1028199893819576;-0.1628;9.7112;0.8619;
1028199913850676;-0.1556;9.7136;0.8763;
1028199933881776;-0.1604;9.6968;0.8691;
1028199953912942;-0.1461;9.7040;0.8619;
1028199973978108;-0.1365;9.6992;0.8572;
1028199994075841;-0.1389;9.7112;0.8595;
1028200014173574;-0.1341;9.7040;0.8835;
1028200034271374;-0.1676;9.7088;0.8835;
1028200054369107;-0.1556;9.7208;0.8739;
1028200074466840;-0.1413;9.7136;0.8643;
1028200094564673;-0.1532;9.7064;0.8715;
1028200114695773;-0.1197;9.7208;0.8763;
1028200134826873;-0.1484;9.6968;0.8643;
1028200154957973;-0.1508;9.7040;0.8691;
1028200175089139;-0.1461;9.7040;0.8787;
1028200195220239;-0.1484;9.7040;0.8739;
1028200215318005;-0.1365;9.6896;0.8643;
1028200235415705;-0.1341;9.7255;0.8595;
1028200255513038;-0.1484;9.7208;0.8643;
1028200275609871;-0.1580;9.7064;0.8667;
1028200295706671;-0.1365;9.7112;0.8811;
1028200315804171;-0.1484;9.7136;0.8643;
1028200335901604;-0.1484;9.6968;0.8715;
1028200355999037;-0.1532;9.7184;0.8811;
1028200376096537;-0.1437;9.7040;0.8811;
1028200396194037;-0.1580;9.6992;0.8739;
1028200416291470;-0.1484;9.7160;0.8691;
1028200436388903;-0.1580;9.7064;0.8715;
1028200456486403;-0.1484;9.7016;0.8548;
1028200476583836;-0.1484;9.7064;0.8548;
1028200496681302;-0.1484;9.7088;0.8739;
1028200516778835;-0.1437;9.7255;0.8739;
1028200536876368;-0.1437;9.7040;0.8691;
1028200556973834;-0.1317;9.7112;0.8715;
1028200577037967;-0.1532;9.7016;0.8524;
1028200597068833;-0.1437;9.7016;0.8691;
1028200617099633;-0.1437;9.6992;0.8739;
1028200637130433;-0.1580;9.7064;0.8715;
1028200657161299;-0.1413;9.7232;0.8715;
1028200677192165;-0.1628;9.7136;0.8619;
1028200697222931;-0.1365;9.7136;0.8572;
1028200717220464;-0.1461;9.6896;0.8715;
1028200737218030;-0.1532;9.7064;0.8667;
1028200757215663;-0.1628;9.7064;0.8548;
1028200777213229;-0.1580;9.6968;0.8548;
1028200797210862;-0.1437;9.7112;0.8691;
1028200817208495;-0.1484;9.7088;0.8739;
1028200837206061;-0.1508;9.6896;0.8643;
1028200857203927;-0.1484;9.6992;0.8787;
1028200877202260;-0.1604;9.7112;0.8859;
1028200897200593;-0.1508;9.7112;0.8835;
1028200917198159;-0.1556;9.7016;0.8619;
1028200937195792;-0.1580;9.7160;0.8572;
1028200957193425;-0.1532;9.7184;0.8595;
1028200977190991;-0.1413;9.7136;0.8619;
1028200997188557;-0.1413;9.7088;0.8572;
1028201017186190;-0.1532;9.7040;0.8548;
1028201037183823;-0.1293;9.7088;0.8715;
1028201057181389;-0.1197;9.6896;0.8643;
1028201077179022;-0.1341;9.6992;0.8643;
1028201097176622;-0.1293;9.7064;0.8667;
1028201117174188;-0.1221;9.7136;0.8715;
1028201137171754;-0.1293;9.7112;0.8715;
1028201157169387;-0.1461;9.7184;0.8715;
1028201177167020;-0.1556;9.7208;0.8643;
1028201197164586;-0.1628;9.7184;0.8739;
1028201217162219;-0.1508;9.7160;0.8715;
1028201237159852;-0.1508;9.7088;0.8595;
1028201257156785;-0.1580;9.6848;0.8619;
1028201277153651;-0.1772;9.7040;0.8691;
1028201297150351;-0.1532;9.7016;0.8595;
1028201317147951;-0.1484;9.7064;0.8763;
1028201337144751;-0.1437;9.6992;0.8859;
1028201357142184;-0.1413;9.7016;0.8452;
1028201377139684;-0.1556;9.7088;0.8595;
1028201397137184;-0.1437;9.7088;0.8691;
1028201417134617;-0.1484;9.7255;0.8619;
1028201437132117;-0.1341;9.7064;0.8811;
1028201457129617;-0.1317;9.7184;0.8739;
1028201477127050;-0.1604;9.6944;0.8572;
1028201497124483;-0.1365;9.7088;0.8739;
1028201517121983;-0.1245;9.7016;0.8619;
1028201537119516;-0.1700;9.7064;0.8715;
1028201557116982;-0.1532;9.6944;0.8643;
1028201577114515;-0.1652;9.7208;0.8763;
1028201597112048;-0.1508;9.7088;0.8619;
1028201617109514;-0.1652;9.7160;0.8643;
1028201637106980;-0.1556;9.7088;0.8691;
1028201657104513;-0.1437;9.7064;0.8667;
1028201677102046;-0.1317;9.7136;0.8715;
1028201697099512;-0.1437;9.7040;0.8691;
1028201717097012;-0.1341;9.7016;0.8739;
1028201737094512;-0.1245;9.7040;0.8667;
1028201757092012;-0.1389;9.7136;0.8739;
1028201777089578;-0.1389;9.7255;0.8572;
1028201797087278;-0.1221;9.7255;0.8548;
1028201817085011;-0.1461;9.7112;0.8548;
1028201837082777;-0.1413;9.7088;0.8739;
1028201857081243;-0.1532;9.7112;0.8572;
1028201877079776;-0.1556;9.7136;0.8667;
1028201897078542;-0.1484;9.6920;0.8691;
1028201917076308;-0.1652;9.7375;0.8548;
1028201937074841;-0.1556;9.7184;0.8715;
1028201957072674;-0.1556;9.7064;0.8595;
1028201977070440;-0.1628;9.7184;0.8691;
1028201997068206;-0.1532;9.6968;0.8739;
1028202017066039;-0.1556;9.7088;0.8691;
1028202037063872;-0.1389;9.7088;0.8643;
1028202057061638;-0.1508;9.7016;0.8500;
1028202077059471;-0.1341;9.7232;0.8619;
1028202097057304;-0.1461;9.6944;0.8500;
1028202117055070;-0.1245;9.7208;0.8667;
1028202137052803;-0.1508;9.7088;0.8643;
1028202157050603;-0.1365;9.7064;0.8667;
1028202177048403;-0.1341;9.7112;0.8595;
1028202197046136;-0.1556;9.7064;0.8548;
1028202217043936;-0.1317;9.6920;0.8715;
1028202237041736;-0.1508;9.7088;0.8667;
1028202257038869;-0.1580;9.6944;0.8619;
1028202277035935;-0.1317;9.7136;0.8763;
1028202297033068;-0.1676;9.7255;0.8715;
1028202317030901;-0.1580;9.7160;0.8595;
1028202337028667;-0.1676;9.7088;0.8667;
1028202357026433;-0.1508;9.7088;0.8619;
1028202377023433;-0.1365;9.6968;0.8643;
1028202397021066;-0.1365;9.7208;0.8739;
1028202417018599;-0.1365;9.7040;0.8787;
1028202437016099;-0.1508;9.6968;0.8595;
1028202457013599;-0.1341;9.7232;0.8739;
1028202477011032;-0.1508;9.7064;0.8643;
1028202497008465;-0.1461;9.7160;0.8667;
1028202517005965;-0.1532;9.7064;0.8595;
1028202537003465;-0.1365;9.7040;0.8595;
1028202557000898;-0.1628;9.7112;0.8643;
1028202576998398;-0.1365;9.6992;0.8548;
1028202596995898;-0.1461;9.7040;0.8500;
1028202616993331;-0.1580;9.7112;0.8739;
1028202636990764;-0.1556;9.7064;0.8595;
1028202656988297;-0.1556;9.6872;0.8595;
1028202676985830;-0.1293;9.7184;0.8619;
1028202696983296;-0.1461;9.7112;0.8595;
1028202716980829;-0.1580;9.7160;0.8715;
1028202736978362;-0.1317;9.7016;0.8715;
1028202756975895;-0.1580;9.7232;0.8643;
1028202776973361;-0.1269;9.7184;0.8524;
1028202796970894;-0.1293;9.7088;0.8643;
1028202816968427;-0.1580;9.6992;0.8595;
1028202836965893;-0.1437;9.7064;0.8548;
1028202856964059;-0.1341;9.6992;0.8500;
1028202876962325;-0.1508;9.7375;0.8619;
1028202896960658;-0.1724;9.7064;0.8548;
1028202916958224;-0.1556;9.7088;0.8595;
1028202936955857;-0.1604;9.6992;0.8619;
1028202956953490;-0.1532;9.7232;0.8619;
1028202976951756;-0.1413;9.7112;0.8859;
1028202996949322;-0.1700;9.7040;0.8524;
1028203016946955;-0.1556;9.7232;0.8763;
1028203036944588;-0.1365;9.6992;0.8643;
1028203056942154;-0.1389;9.7040;0.8763;
1028203076939787;-0.1484;9.7040;0.8811;
1028203096937420;-0.1604;9.7040;0.8739;
1028203116934986;-0.1389;9.6920;0.8691;
1028203136932552;-0.1341;9.7112;0.8595;
1028203156930185;-0.1461;9.7136;0.8524;
1028203176927818;-0.1413;9.6992;0.8619;
1028203196925384;-0.1413;9.7208;0.8667;
1028203216923017;-0.1508;9.7255;0.8691;
1028203236920650;-0.1437;9.7088;0.8643;
1028203256917550;-0.1508;9.7112;0.8763;
1028203276914416;-0.1461;9.7016;0.8763;
1028203296911349;-0.1508;9.7088;0.8667;
1028203316908982;-0.1437;9.6968;0.8691;
1028203336906548;-0.1508;9.6992;0.8787;
1028203356904114;-0.1437;9.7064;0.8452;
1028203376901047;-0.1461;9.6872;0.8715;
1028203396898680;-0.1508;9.7136;0.8524;
1028203416896246;-0.1461;9.7064;0.8572;
1028203436893879;-0.1532;9.6968;0.8667;
1028203456891479;-0.1580;9.7184;0.8572;
1028203476888979;-0.1484;9.7088;0.8476;
1028203496886412;-0.1532;9.7040;0.8835;
1028203516883912;-0.1484;9.7136;0.8691;
1028203536881412;-0.1413;9.7208;0.8500;
1028203556878845;-0.1413;9.7040;0.8667;
1028203576876345;-0.1508;9.7088;0.8619;
1028203596873845;-0.1628;9.6896;0.8619;
1028203616871345;-0.1556;9.6968;0.8619;
1028203636868778;-0.1365;9.7279;0.8643;
1028203656866278;-0.1532;9.7016;0.8500;
1028203676863778;-0.1437;9.7016;0.8739;
1028203696861244;-0.1317;9.7040;0.8476;
1028203716858777;-0.1508;9.7112;0.8787;
1028203736856310;-0.1676;9.7184;0.8595;
1028203756853843;-0.1437;9.6968;0.8619;
1028203776851309;-0.1437;9.7112;0.8691;
1028203796848842;-0.1317;9.6992;0.8739;
1028203816846375;-0.1508;9.7016;0.8524;
1028203836843841;-0.1437;9.7184;0.8739;
1028203856842007;-0.1484;9.7136;0.8404;
1028203876840207;-0.1389;9.7088;0.8476;
1028203896871740;-0.1437;9.6992;0.8548;
1028203916902640;-0.1437;9.6968;0.8524;
1028203936933673;-0.1604;9.6992;0.8595;
1028203956964739;-0.1532;9.7112;0.8739;
1028203976996505;-0.1484;9.7088;0.8667;
1028203997027638;-0.1604;9.6801;0.8715;
1028204017058838;-0.1556;9.6992;0.8595;
1028204037090038;-0.1652;9.7088;0.8595;
1028204057121171;-0.1484;9.7208;0.8548;
1028204077152371;-0.1413;9.7112;0.8595;
1028204097183571;-0.1508;9.6896;0.8667;
1028204117214704;-0.1508;9.6968;0.8667;
1028204137245837;-0.1556;9.6992;0.8524;
1028204157277037;-0.1508;9.7088;0.8548;
1028204177308237;-0.1508;9.7064;0.8787;
1028204197339370;-0.1269;9.7064;0.8500;
1028204217370503;-0.1245;9.7040;0.8643;
1028204237401703;-0.1532;9.7160;0.8595;
1028204257432136;-0.1580;9.7232;0.8643;
1028204277462569;-0.1413;9.7064;0.8667;
1028204297493035;-0.1508;9.7088;0.8476;
1028204317523501;-0.1365;9.7160;0.8595;
1028204337554634;-0.1245;9.7112;0.8643;
1028204357585767;-0.1461;9.6944;0.8524;
1028204377617200;-0.1389;9.7064;0.8572;
1028204397648400;-0.1628;9.7088;0.8500;
1028204417679533;-0.1604;9.7184;0.8643;
1028204437710733;-0.1580;9.6777;0.8548;
1028204457741933;-0.1532;9.7112;0.8691;
1028204477773066;-0.1437;9.6992;0.8548;
1028204497770866;-0.1437;9.7399;0.8739;
1028204517768599;-0.1389;9.7136;0.8739;
1028204537766265;-0.1341;9.6992;0.8572;
1028204557763831;-0.1341;9.7136;0.8667;
1028204577761397;-0.1293;9.7136;0.8643;
1028204597758897;-0.1413;9.6968;0.8595;
1028204617756330;-0.1532;9.6968;0.8619;
1028204637753763;-0.1437;9.7064;0.8428;
1028204657751263;-0.1269;9.6992;0.8572;
1028204677748763;-0.1508;9.7136;0.8619;
1028204697746196;-0.1413;9.7255;0.8595;
1028204717743696;-0.1628;9.7112;0.8595;
1028204737741196;-0.1532;9.7160;0.8524;
1028204757738662;-0.1700;9.6992;0.8811;
1028204777736128;-0.1508;9.7136;0.8667;
1028204797733661;-0.1556;9.7064;0.8835;
1028204817731194;-0.1437;9.6920;0.8787;
1028204837728660;-0.1389;9.7040;0.8572;
1028204857726893;-0.1365;9.7208;0.8715;
1028204877725126;-0.1389;9.7160;0.8715;
1028204897723359;-0.1628;9.7064;0.8619;
1028204917721525;-0.1484;9.7112;0.8572;
1028204937719025;-0.1508;9.7136;0.8452;
1028204957716525;-0.1365;9.7160;0.8524;
1028204977713725;-0.1461;9.6944;0.8524;
1028204997711191;-0.1556;9.7112;0.8667;
1028205017708824;-0.1772;9.7112;0.8619;
1028205037706524;-0.1700;9.7112;0.8859;
1028205057704224;-0.1508;9.7136;0.8619;
1028205077702057;-0.1532;9.7016;0.8667;
1028205097699890;-0.1628;9.7112;0.8548;
1028205117697656;-0.1628;9.7016;0.8595;
1028205137695422;-0.1245;9.7064;0.8524;
1028205157693255;-0.1413;9.7064;0.8524;
1028205177691088;-0.1341;9.7040;0.8524;
1028205197688854;-0.1389;9.7064;0.8572;
1028205217686687;-0.1628;9.7064;0.8595;
1028205237684520;-0.1508;9.7064;0.8643;
1028205257681586;-0.1461;9.7112;0.8619;
1028205277678686;-0.1628;9.7184;0.8787;
1028205297675819;-0.1532;9.7088;0.8595;
1028205317672952;-0.1676;9.7112;0.8667;
1028205337670718;-0.1604;9.7064;0.8715;
1028205357668518;-0.1676;9.6729;0.8667;
1028205377666651;-0.1532;9.7088;0.8715;
1028205397664451;-0.1532;9.7064;0.8595;
1028205417662184;-0.1389;9.7184;0.8667;
1028205437659984;-0.1389;9.7255;0.8643;
1028205457657784;-0.1341;9.7088;0.8452;
1028205477655550;-0.1413;9.6992;0.8572;
1028205497653316;-0.1461;9.7136;0.8548;
1028205517651149;-0.1293;9.7040;0.8643;
1028205537648982;-0.1508;9.6992;0.8667;
1028205557646748;-0.1508;9.7064;0.8643;
1028205577644581;-0.1341;9.7040;0.8643;
1028205597642381;-0.1484;9.7064;0.8595;
1028205617640014;-0.1484;9.7016;0.8691;
1028205637637580;-0.1484;9.7088;0.8548;
1028205657635146;-0.1556;9.7184;0.8619;
1028205677632646;-0.1508;9.7279;0.8667;
1028205697630079;-0.1556;9.7088;0.8452;
1028205717627579;-0.1532;9.7064;0.8476;
1028205737625079;-0.1628;9.7040;0.8548;
1028205757622512;-0.1389;9.6968;0.8595;
1028205777619945;-0.1365;9.6872;0.8595;
1028205797617445;-0.1628;9.7016;0.8667;
1028205817614945;-0.1461;9.7040;0.8548;
1028205837612378;-0.1413;9.7064;0.8691;
1028205857610578;-0.1389;9.7184;0.8548;
1028205877608778;-0.1389;9.7303;0.8548;
1028205897607011;-0.1413;9.7088;0.8595;
1028205917605177;-0.1317;9.7064;0.8572;
1028205937602710;-0.1604;9.7136;0.8619;
1028205957600243;-0.1508;9.6968;0.8548;
1028205977597376;-0.1317;9.6896;0.8548;
1028205997594842;-0.1628;9.6920;0.8691;
1028206017592375;-0.1556;9.6968;0.8715;
1028206037589908;-0.1724;9.6992;0.8572;
1028206057587374;-0.1628;9.7208;0.8619;
1028206077584874;-0.1628;9.7160;0.8476;
1028206097582407;-0.1484;9.7184;0.8452;
1028206117579973;-0.1341;9.7184;0.8667;
1028206137577539;-0.1317;9.7232;0.8500;
1028206157575172;-0.1437;9.7208;0.8500;
1028206177606138;-0.1413;9.6992;0.8643;
1028206197670371;-0.1437;9.7112;0.8595;
1028206217768004;-0.1532;9.7016;0.8595;
1028206237865637;-0.1317;9.7016;0.8619;
1028206257962503;-0.1652;9.6944;0.8452;
1028206278059369;-0.1532;9.6968;0.8476;
1028206298156302;-0.1556;9.7040;0.8548;
1028206318253168;-0.1556;9.7136;0.8619;
1028206338350734;-0.1628;9.7064;0.8572;
1028206358448367;-0.1580;9.7088;0.8739;
1028206378546000;-0.1413;9.7208;0.8667;
1028206398643566;-0.1508;9.7112;0.8643;
1028206418741132;-0.1508;9.7016;0.8595;
1028206438838765;-0.1580;9.6992;0.8691;
1028206458936398;-0.1604;9.6992;0.8572;
1028206479033931;-0.1532;9.7016;0.8500;
1028206499131497;-0.1604;9.7112;0.8404;
1028206519229130;-0.1556;9.7016;0.8380;
1028206539326696;-0.1508;9.7136;0.8524;
1028206559424262;-0.1389;9.7255;0.8500;
1028206579521895;-0.1556;9.7040;0.8500;
1028206599619528;-0.1413;9.6968;0.8811;
1028206619717094;-0.1508;9.7016;0.8667;
1028206639814660;-0.1484;9.7064;0.8715;
1028206659912293;-0.1556;9.7184;0.8739;
1028206680009859;-0.1437;9.7016;0.8763;
1028206700107392;-0.1676;9.6896;0.8667;
1028206720204892;-0.1532;9.7088;0.8739;
1028206740302392;-0.1628;9.7136;0.8643;
1028206760399825;-0.1461;9.7088;0.8619;
1028206780463925;-0.1556;9.7184;0.8572;
1028206800494758;-0.1484;9.7160;0.8452;
1028206820492191;-0.1437;9.7040;0.8500;
1028206840489624;-0.1389;9.6992;0.8667;
1028206860487824;-0.1604;9.7160;0.8500;
1028206880486024;-0.1628;9.7016;0.8763;
1028206900484190;-0.1221;9.7040;0.8500;
1028206920482423;-0.1365;9.7040;0.8691;
1028206940479956;-0.1724;9.7208;0.8595;
1028206960477489;-0.1652;9.7160;0.8667;
1028206980474955;-0.1413;9.7184;0.8739;
1028207000472488;-0.1628;9.6992;0.8643;
1028207020470021;-0.1604;9.6968;0.8548;
1028207040467487;-0.1628;9.7255;0.8524;
1028207060464953;-0.1556;9.6992;0.8643;
1028207080462486;-0.1508;9.6968;0.8619;
1028207100459986;-0.1580;9.7088;0.8572;
1028207120457419;-0.1484;9.6896;0.8619;
1028207140454952;-0.1437;9.7088;0.8715;
1028207160452585;-0.1484;9.7112;0.8524;
1028207180450251;-0.1413;9.7040;0.8595;
1028207200447951;-0.1389;9.6896;0.8667;
1028207220445784;-0.1532;9.7136;0.8811;
1028207240443617;-0.1580;9.7160;0.8595;
1028207260440683;-0.1532;9.6920;0.8476;
1028207280437816;-0.1365;9.7208;0.8524;
1028207300435049;-0.1461;9.7064;0.8332;
1028207320432115;-0.1556;9.7088;0.8595;
1028207340429881;-0.1508;9.7088;0.8667;
1028207360427714;-0.1437;9.7232;0.8572;
1028207380424847;-0.1604;9.7088;0.8548;
1028207400422613;-0.1604;9.7160;0.8548;
1028207420420446;-0.1532;9.7160;0.8667;
1028207440418279;-0.1437;9.7112;0.8715;
1028207460416112;-0.1508;9.7016;0.8667;
1028207480413878;-0.1628;9.6992;0.8595;
1028207500411678;-0.1437;9.7088;0.8524;
1028207520409478;-0.1437;9.7040;0.8619;
1028207540407211;-0.1484;9.7136;0.8476;
1028207560404944;-0.1245;9.7208;0.8667;
1028207580402744;-0.1413;9.7088;0.8572;
1028207600400544;-0.1341;9.7064;0.8572;
1028207620398310;-0.1437;9.6872;0.8500;
1028207640396143;-0.1532;9.6944;0.8595;
1028207660393976;-0.1461;9.7040;0.8787;
1028207680391742;-0.1652;9.7160;0.8763;
1028207700389508;-0.1508;9.6992;0.8691;
1028207720387341;-0.1365;9.7160;0.8643;
1028207740385141;-0.1389;9.7303;0.8524;
1028207760382774;-0.1437;9.7208;0.8572;
1028207780380374;-0.1604;9.7064;0.8404;
1028207800377940;-0.1844;9.6992;0.8739;
1028207820375373;-0.1461;9.6801;0.8691;
1028207840372806;-0.1389;9.7040;0.8715;
1028207860371006;-0.1317;9.6968;0.8595;
1028207880369206;-0.1389;9.7088;0.8619;
1028207900367239;-0.1293;9.7136;0.8500;
1028207920365439;-0.1317;9.7279;0.8524;
1028207940362939;-0.1604;9.7136;0.8667;
1028207960360439;-0.1413;9.7016;0.8476;
1028207980358572;-0.1437;9.6968;0.8476;
1028208000356072;-0.1437;9.6992;0.8667;
1028208020353572;-0.1413;9.6968;0.8811;
1028208040351038;-0.1484;9.6801;0.8715;
1028208060348504;-0.1556;9.7184;0.8500;
1028208080346037;-0.1580;9.6824;0.8500;
1028208100343570;-0.1676;9.7136;0.8500;
1028208120341036;-0.1628;9.7303;0.8500;
1028208140338569;-0.1389;9.7184;0.8452;
1028208160336102;-0.1389;9.7160;0.8572;
1028208180333568;-0.1484;9.6968;0.8524;
1028208200331034;-0.1580;9.7112;0.8524;
1028208220328534;-0.1365;9.6968;0.8667;
1028208240326067;-0.1461;9.6992;0.8667;
1028208260322933;-0.1389;9.7088;0.8667;
1028208280319866;-0.1389;9.7016;0.8691;
1028208300316799;-0.1317;9.7088;0.8595;
1028208320314365;-0.1437;9.6944;0.8572;
1028208340311931;-0.1556;9.7088;0.8548;
1028208360309564;-0.1580;9.7136;0.8667;
1028208380306497;-0.1580;9.7112;0.8715;
1028208400304063;-0.1556;9.7160;0.8572;
1028208420335029;-0.1413;9.7279;0.8643;
1028208440365995;-0.1437;9.7255;0.8643;
1028208460396895;-0.1604;9.7016;0.8763;
1028208480427795;-0.1484;9.7040;0.8811;
1028208500458761;-0.1508;9.7279;0.8595;
1028208520489727;-0.1484;9.6992;0.8595;
1028208540520627;-0.1508;9.7088;0.8667;
1028208560551527;-0.1508;9.6992;0.8595;
1028208580582493;-0.1365;9.7088;0.8715;
1028208600613459;-0.1628;9.7232;0.8500;
1028208620644359;-0.1580;9.7136;0.8643;
1028208640675292;-0.1365;9.7064;0.8595;
1028208660706258;-0.1508;9.7064;0.8643;
1028208680737158;-0.1532;9.7184;0.8572;
1028208700768058;-0.1437;9.7064;0.8739;
1028208720799024;-0.1604;9.7016;0.8811;
1028208740829990;-0.1484;9.7016;0.8667;
1028208760860890;-0.1604;9.6992;0.8548;
1028208780891856;-0.1580;9.6992;0.8500;
1028208800922822;-0.1508;9.7136;0.8595;
1028208820953722;-0.1461;9.7064;0.8548;
1028208840984588;-0.1532;9.7088;0.8811;
1028208861016121;-0.1580;9.7088;0.8548;
1028208881047654;-0.1461;9.6992;0.8404;
1028208901079120;-0.1437;9.6992;0.8572;
1028208921109953;-0.1484;9.7136;0.8787;
1028208941140786;-0.1484;9.6992;0.8811;
1028208961171552;-0.1484;9.7040;0.8691;
1028208981203018;-0.1676;9.7064;0.8500;
1028209001233851;-0.1413;9.7136;0.8380;
1028209021231351;-0.1724;9.7184;0.8548;
1028209041228784;-0.1532;9.7064;0.8811;
1028209061226317;-0.1532;9.7040;0.8548;
1028209081223850;-0.1604;9.7136;0.8548;
1028209101221383;-0.1484;9.7088;0.8595;
1028209121218849;-0.1484;9.7040;0.8476;
1028209141216382;-0.1532;9.6992;0.8595;
1028209161213915;-0.1461;9.6920;0.8572;
1028209181211381;-0.1413;9.7255;0.8572;
1028209201208847;-0.1437;9.7088;0.8548;
1028209221206380;-0.1556;9.7160;0.8500;
1028209241203913;-0.1413;9.7136;0.8715;
1028209261200646;-0.1532;9.6920;0.8548;
1028209281197479;-0.1413;9.7040;0.8619;
1028209301194412;-0.1389;9.7112;0.8643;
1028209321191378;-0.1437;9.7136;0.8404;
1028209341189078;-0.1437;9.7112;0.8691;
1028209361186878;-0.1532;9.6944;0.8619;
1028209381184744;-0.1484;9.7016;0.8404;
1028209401182544;-0.1532;9.7208;0.8572;
1028209421180410;-0.1461;9.7088;0.8667;
1028209441178276;-0.1461;9.7184;0.8811;
1028209461176076;-0.1341;9.6896;0.8667;
1028209481173876;-0.1532;9.6992;0.8212;
1028209501171742;-0.1461;9.7208;0.8691;
1028209521169608;-0.1484;9.7208;0.8763;
1028209541167408;-0.1628;9.7184;0.8619;
1028209561165274;-0.1556;9.7040;0.8332;
1028209581163140;-0.1532;9.7088;0.8548;
1028209601161006;-0.1604;9.7303;0.8859;
1028209621158806;-0.1532;9.7016;0.8715;
1028209641156672;-0.1532;9.6848;0.8428;
1028209661154505;-0.1508;9.6992;0.8356;
1028209681152271;-0.1676;9.7088;0.8619;
1028209701150037;-0.1437;9.7303;0.8835;
1028209721147903;-0.1532;9.6968;0.8643;
1028209741145769;-0.1508;9.6992;0.8428;
1028209761143569;-0.1532;9.7088;0.8404;
1028209781141435;-0.1556;9.7208;0.8643;
1028209801139301;-0.1461;9.7136;0.8763;
1028209821137101;-0.1700;9.6992;0.8643;
1028209841134901;-0.1556;9.6824;0.8332;
1028209861133467;-0.1556;9.7136;0.8859;
1028209881132000;-0.1556;9.7040;0.8667;
1028209901130366;-0.1365;9.7184;0.8452;
1028209921128699;-0.1317;9.6872;0.8404;
1028209941126299;-0.1317;9.7088;0.8380;
1028209961123799;-0.1413;9.7088;0.8548;
1028209981121232;-0.1317;9.7136;0.8643;
1028210001118732;-0.1461;9.7160;0.8452;
1028210021116232;-0.1413;9.6968;0.8404;
1028210041113665;-0.1724;9.7136;0.8572;
1028210061111165;-0.1580;9.7232;0.8787;
1028210081108665;-0.1604;9.7208;0.8619;
1028210101106165;-0.1676;9.6968;0.8452;
1028210121103631;-0.1580;9.7040;0.8452;
1028210141101164;-0.1556;9.7136;0.8763;
1028210161098697;-0.1341;9.7088;0.8643;
1028210181096163;-0.1580;9.7112;0.8500;
1028210201093629;-0.1652;9.7112;0.8404;
1028210221091162;-0.1269;9.7184;0.8476;
1028210241088695;-0.1389;9.7303;0.8643;
1028210261085461;-0.1317;9.7088;0.8404;
1028210281082294;-0.1461;9.7136;0.8763;
1028210301079127;-0.1269;9.7136;0.8476;
1028210321076560;-0.1652;9.7232;0.8715;
1028210341073993;-0.1772;9.7232;0.8811;
1028210361071493;-0.1772;9.6968;0.8476;
1028210381069026;-0.1724;9.6944;0.8595;
1028210401066659;-0.1676;9.7016;0.8548;
1028210421064392;-0.1389;9.7112;0.8691;
1028210441062158;-0.1556;9.7184;0.8619;
1028210461059924;-0.1293;9.7136;0.8452;
1028210481057690;-0.1389;9.7184;0.8452;
1028210501055523;-0.1389;9.7136;0.8595;
1028210521053356;-0.1365;9.7088;0.8835;
1028210541051122;-0.1437;9.7088;0.8452;
1028210561048955;-0.1269;9.7112;0.8332;
1028210581046788;-0.1461;9.7208;0.8619;
1028210601044621;-0.1389;9.7040;0.8763;
1028210621042387;-0.1532;9.7160;0.8691;
1028210641040220;-0.1532;9.7016;0.8380;
1028210661038053;-0.1652;9.7088;0.8667;
1028210681035819;-0.1676;9.6992;0.8619;
1028210701033585;-0.1604;9.7208;0.8787;
1028210721031385;-0.1628;9.6920;0.8332;
1028210741029185;-0.1628;9.6896;0.8308;
1028210761026918;-0.1628;9.7232;0.8691;
1028210781024718;-0.1652;9.7016;0.8667;
1028210801022518;-0.1604;9.7040;0.8643;
1028210821020251;-0.1413;9.6992;0.8452;
1028210841018017;-0.1413;9.7088;0.8404;
1028210861016550;-0.1484;9.7208;0.8643;
1028210881015083;-0.1341;9.6992;0.8739;
1028210901013549;-0.1341;9.7064;0.8572;
1028210921011382;-0.1341;9.6968;0.8524;
1028210941009215;-0.1437;9.7088;0.8572;
1028210961006981;-0.1437;9.7088;0.8643;
1028210981004714;-0.1748;9.7160;0.8572;
1028211001002347;-0.1580;9.7184;0.8595;
1028211020999947;-0.1461;9.6872;0.8260;
1028211040997447;-0.1628;9.6920;0.8595;
1028211060994947;-0.1748;9.7112;0.8787;
1028211080992447;-0.1556;9.7040;0.8476;
1028211100989947;-0.1580;9.7208;0.8524;
1028211120987380;-0.1389;9.6824;0.8643;
1028211140984880;-0.1484;9.7184;0.8572;
1028211160982380;-0.1604;9.6992;0.8763;
1028211180979813;-0.1748;9.6992;0.8835;
1028211200977246;-0.1532;9.7136;0.8524;
1028211220974746;-0.1532;9.7064;0.8500;
1028211240972246;-0.1437;9.7064;0.8428;
1028211260969012;-0.1413;9.6992;0.8595;
1028211280965845;-0.1317;9.7112;0.8572;
1028211300962678;-0.1341;9.6920;0.8452;
1028211320959444;-0.1556;9.7136;0.8524;
1028211340956910;-0.1508;9.7160;0.8500;
1028211360953743;-0.1437;9.7016;0.8595;
1028211380951276;-0.1341;9.7088;0.8619;
1028211400948742;-0.1437;9.6920;0.8643;
1028211420946275;-0.1508;9.7040;0.8667;
1028211440943775;-0.1628;9.6824;0.8667;
1028211460941241;-0.1772;9.7112;0.8691;
1028211480938741;-0.1461;9.7040;0.8500;
1028211500936374;-0.1461;9.7112;0.8572;
1028211520934007;-0.1484;9.7136;0.8548;
1028211540931573;-0.1437;9.7184;0.8619;
1028211560929206;-0.1556;9.7208;0.8476;
1028211580926839;-0.1556;9.7088;0.8595;
1028211600924472;-0.1389;9.6968;0.8595;
1028211620922038;-0.1365;9.7232;0.8643;
1028211640919671;-0.1341;9.7040;0.8476;
1028211660917304;-0.1461;9.7112;0.8595;
1028211680914870;-0.1580;9.7064;0.8595;
1028211700912436;-0.1676;9.7184;0.8572;
1028211720910069;-0.1532;9.7112;0.8595;
1028211740907702;-0.1461;9.7016;0.8524;
1028211760905268;-0.1556;9.7064;0.8643;
1028211780902901;-0.1413;9.7088;0.8476;
1028211800900534;-0.1508;9.7040;0.8643;
1028211820898100;-0.1628;9.7279;0.8500;
1028211840895666;-0.1508;9.7040;0.8548;
1028211860893966;-0.1532;9.7064;0.8452;
1028211880892299;-0.1532;9.7303;0.8548;
1028211900890565;-0.1532;9.7136;0.8643;
1028211920888898;-0.1556;9.7064;0.8572;
1028211940886531;-0.1604;9.7136;0.8619;
1028211960884797;-0.1461;9.7255;0.8667;
1028211980882363;-0.1413;9.7088;0.8595;
1028212000879996;-0.1532;9.7136;0.8524;
1028212020877629;-0.1341;9.7064;0.8595;
1028212040875195;-0.1484;9.7279;0.8524;
1028212060872795;-0.1508;9.6992;0.8500;
1028212080870361;-0.1461;9.7112;0.8691;
1028212100867861;-0.1461;9.7112;0.8452;
1028212120865294;-0.1604;9.6968;0.8500;
1028212140862794;-0.1556;9.6968;0.8452;
1028212160860294;-0.1508;9.7016;0.8548;
1028212180857727;-0.1484;9.7016;0.8548;
1028212200855160;-0.1461;9.7088;0.8595;
1028212220852660;-0.1628;9.7016;0.8548;
1028212240850160;-0.1484;9.7040;0.8500;
1028212260846993;-0.1556;9.7208;0.8524;
1028212280843893;-0.1365;9.7160;0.8548;
1028212300840726;-0.1365;9.7088;0.8500;
1028212320837492;-0.1532;9.7040;0.8595;
1028212340834958;-0.1532;9.7088;0.8667;
1028212360832491;-0.1532;9.7088;0.8572;
1028212380829324;-0.1484;9.7064;0.8572;
1028212400826790;-0.1484;9.7112;0.8524;
1028212420824323;-0.1461;9.7112;0.8572;
1028212440821856;-0.1461;9.7279;0.8548;
1028212460819322;-0.1532;9.7279;0.8667;
1028212480816755;-0.1628;9.7327;0.8548;
1028212500814255;-0.1628;9.6992;0.8572;
1028212520811788;-0.1580;9.6944;0.8667;
1028212540809421;-0.1484;9.7184;0.8524;
1028212560807154;-0.1461;9.7016;0.8739;
1028212580804920;-0.1317;9.7040;0.8428;
1028212600802753;-0.1197;9.7040;0.8595;
1028212620800519;-0.1389;9.6920;0.8476;
1028212640798352;-0.1461;9.7184;0.8500;
1028212660796185;-0.1221;9.7208;0.8500;
1028212680793951;-0.1413;9.7112;0.8572;
1028212700791717;-0.1413;9.7112;0.8643;
1028212720789550;-0.1652;9.7255;0.8380;
1028212740787383;-0.1700;9.7160;0.8619;
1028212760785149;-0.1484;9.6968;0.8572;
1028212780782982;-0.1652;9.7160;0.8572;
1028212800780815;-0.1580;9.7016;0.8524;
1028212820778581;-0.1556;9.7064;0.8667;
1028212840776347;-0.1484;9.7040;0.8595;
1028212860774780;-0.1317;9.6992;0.8619;
1028212880773213;-0.1556;9.7112;0.8548;
1028212900771646;-0.1484;9.7088;0.8356;
1028212920770146;-0.1461;9.7184;0.8643;
1028212940767946;-0.1437;9.7040;0.8524;
1028212960765679;-0.1580;9.7208;0.8572;
1028212980764112;-0.1772;9.7088;0.8643;
1028213000761945;-0.1508;9.7232;0.8572;
1028213020759778;-0.1484;9.7184;0.8572;
1028213040757544;-0.1580;9.7184;0.8595;
1028213060755377;-0.1652;9.6992;0.8428;
1028213080753210;-0.1461;9.6968;0.8643;
1028213100751043;-0.1317;9.7160;0.8524;
1028213120748776;-0.1604;9.7064;0.8572;
1028213140746409;-0.1700;9.7112;0.8572;
1028213160744009;-0.1628;9.7088;0.8572;
1028213180741509;-0.1580;9.7136;0.8572;
1028213200738942;-0.1628;9.7088;0.8452;
1028213220736442;-0.1532;9.7064;0.8524;
1028213240733942;-0.1389;9.7184;0.8595;
1028213260731175;-0.1556;9.7208;0.8643;
1028213280727975;-0.1413;9.7136;0.8643;
1028213300724775;-0.1341;9.7040;0.8595;
1028213320721508;-0.1413;9.6872;0.8595;
1028213340718941;-0.1437;9.7232;0.8619;
1028213360716441;-0.1556;9.7112;0.8667;
1028213380713941;-0.1461;9.7040;0.8332;
1028213400711407;-0.1532;9.7208;0.8452;
1028213420708940;-0.1628;9.7064;0.8404;
1028213440706473;-0.1484;9.7184;0.8476;
1028213460703939;-0.1389;9.7016;0.8500;
1028213480701405;-0.1413;9.7112;0.8595;
1028213500698938;-0.1532;9.6824;0.8667;
1028213520696471;-0.1724;9.7184;0.8643;
1028213540693937;-0.1461;9.6920;0.8763;
1028213560691470;-0.1484;9.7088;0.8524;
1028213580689003;-0.1389;9.6896;0.8572;
1028213600686503;-0.1461;9.7136;0.8500;
1028213620684003;-0.1508;9.7160;0.8452;
1028213640681636;-0.1580;9.7160;0.8308;
1028213660679269;-0.1508;9.7255;0.8500;
1028213680710169;-0.1365;9.7040;0.8572;
1028213700741069;-0.1508;9.7136;0.8524;
1028213720772035;-0.1628;9.7064;0.8763;
1028213740803001;-0.1532;9.6992;0.8595;
1028213760833901;-0.1365;9.6992;0.8500;
1028213780864867;-0.1341;9.7064;0.8476;
1028213800895833;-0.1413;9.7016;0.8643;
1028213820926733;-0.1556;9.7255;0.8619;
1028213840957633;-0.1772;9.7255;0.8524;
1028213860988799;-0.1532;9.7327;0.8643;
1028213881020465;-0.1556;9.7232;0.8476;
1028213901052065;-0.1508;9.7208;0.8548;
1028213921083731;-0.1508;9.7112;0.8452;
1028213941114697;-0.1437;9.6992;0.8452;
1028213961145597;-0.1604;9.6920;0.8548;
1028213981176497;-0.1437;9.7064;0.8428;
1028214001207430;-0.1580;9.7088;0.8476;
1028214021271696;-0.1484;9.7064;0.8548;
1028214041335929;-0.1389;9.6896;0.8715;
1028214061433562;-0.1437;9.6992;0.8667;
1028214081531195;-0.1389;9.7040;0.8691;
1028214101628761;-0.1461;9.7016;0.8524;
1028214121726327;-0.1604;9.7184;0.8667;
1028214141823960;-0.1580;9.7327;0.8524;
1028214161954860;-0.1532;9.7112;0.8548;
1028214182085760;-0.1365;9.6944;0.8476;
1028214202216660;-0.1461;9.7088;0.8667;
1028214222380893;-0.1341;9.7136;0.8667;
1028214242544993;-0.1532;9.7064;0.8715;
1028214262708393;-0.1532;9.6992;0.8691;
1028214282838793;-0.1676;9.6968;0.8715;
1028214302968859;-0.1628;9.7112;0.8500;
1028214323099625;-0.1724;9.7136;0.8380;
1028214343230391;-0.1580;9.7088;0.8595;
1028214363360524;-0.1580;9.7184;0.8356;
1028214383490590;-0.1484;9.7184;0.8404;
1028214403621356;-0.1365;9.7136;0.8380;
1028214423752189;-0.1604;9.6992;0.8619;
1028214443882289;-0.1413;9.7160;0.8548;
1028214464013089;-0.1389;9.7088;0.8787;
1028214484143889;-0.1293;9.7136;0.8691;
1028214504274755;-0.1341;9.6968;0.8811;
1028214524438888;-0.1293;9.7040;0.8667;
1028214544603021;-0.1461;9.7160;0.8619;
1028214564767221;-0.1413;9.7040;0.8619;
1028214584931354;-0.1413;9.7279;0.8452;
1028214605095487;-0.1461;9.7184;0.8476;
1028214625226287;-0.1580;9.7255;0.8404;
1028214645357120;-0.1556;9.6944;0.8308;
1028214665488020;-0.1676;9.7064;0.8404;
1028214685652320;-0.1676;9.6872;0.8428;
1028214705816720;-0.1676;9.7136;0.8572;
1028214726014453;-0.1484;9.7160;0.8548;
1028214746212253;-0.1508;9.7112;0.8787;
1028214766410119;-0.1437;9.7232;0.8811;
1028214786607919;-0.1341;9.7136;0.8691;
1028214806805719;-0.1508;9.7112;0.8572;
1028214826970185;-0.1580;9.7016;0.8476;
1028214847134718;-0.1484;9.7184;0.8524;
1028214867299884;-0.1221;9.7064;0.8332;
1028214887464784;-0.1221;9.7088;0.8404;
1028214907630017;-0.1365;9.7088;0.8500;
1028214927794483;-0.1508;9.6992;0.8524;
1028214947958949;-0.1652;9.6848;0.8380;
1028214968124115;-0.1461;9.6920;0.8595;
1028214988289348;-0.1508;9.6992;0.8643;
1028215008487148;-0.1604;9.7136;0.8619;
1028215028684948;-0.1700;9.7232;0.8619;
1028215048883481;-0.1556;9.7088;0.8667;
1028215069081247;-0.1604;9.7040;0.8763;
1028215089279047;-0.1652;9.7016;0.8524;
1028215109476847;-0.1628;9.7016;0.8524;
1028215129641380;-0.1317;9.6944;0.8548;
1028215149805846;-0.1461;9.7016;0.8667;
1028215169970312;-0.1293;9.7088;0.8452;
1028215190134845;-0.1389;9.6992;0.8476;
1028215210332645;-0.1365;9.7136;0.8452;
1028215230530445;-0.1604;9.7088;0.8595;
1028215250727545;-0.1341;9.7255;0.8619;
1028215270891245;-0.1676;9.7088;0.8667;
1028215291021478;-0.1532;9.7208;0.8763;
1028215311152378;-0.1724;9.7136;0.8548;
1028215331249244;-0.1389;9.7040;0.8572;
1028215351346677;-0.1652;9.6968;0.8691;
1028215371410777;-0.1389;9.7064;0.8667;
1028215391474243;-0.1628;9.6968;0.8667;
1028215411538409;-0.1628;9.7064;0.8548;
1028215431602509;-0.1532;9.7232;0.8428;
1028215451666609;-0.1556;9.7136;0.8404;
1028215471730775;-0.1556;9.7303;0.8308;
1028215491794908;-0.1508;9.7112;0.8739;
1028215511859041;-0.1341;9.7184;0.8667;
1028215531923241;-0.1413;9.7016;0.8667;
1028215551987441;-0.1556;9.7040;0.8572;
1028215572051574;-0.1532;9.7160;0.8572;
1028215592115707;-0.1604;9.7184;0.8691;
1028215612146573;-0.1484;9.6848;0.8500;
1028215632177439;-0.1437;9.7160;0.8500;
1028215652208239;-0.1413;9.7112;0.8524;
1028215672239105;-0.1389;9.7088;0.8404;
1028215692269938;-0.1772;9.7016;0.8619;
1028215712300704;-0.1508;9.7040;0.8643;
1028215732331470;-0.1676;9.6944;0.8524;
1028215752362336;-0.1508;9.7232;0.8572;
1028215772393302;-0.1556;9.7279;0.8476;
1028215792424302;-0.1580;9.7064;0.8619;
1028215812422068;-0.1484;9.7232;0.8524;
1028215832419901;-0.1461;9.7064;0.8572;
1028215852418367;-0.1413;9.7112;0.8691;
1028215872416833;-0.1508;9.7064;0.8715;
1028215892415366;-0.1413;9.7040;0.8524;
1028215912413199;-0.1269;9.7184;0.8500;
1028215932411665;-0.1484;9.7064;0.8428;
1028215952409498;-0.1484;9.6992;0.8452;
1028215972407331;-0.1269;9.7303;0.8548;
1028215992405797;-0.1580;9.7184;0.8500;
1028216012403563;-0.1532;9.7112;0.8667;
1028216032401396;-0.1556;9.7088;0.8667;
1028216052399229;-0.1532;9.7040;0.8595;
1028216072396995;-0.1556;9.7136;0.8619;
1028216092394795;-0.1484;9.7064;0.8691;
1028216112392595;-0.1556;9.7016;0.8548;
1028216132390395;-0.1508;9.7112;0.8619;
1028216152388128;-0.1461;9.7136;0.8524;
1028216172385928;-0.1532;9.7064;0.8667;
1028216192383728;-0.1508;9.7040;0.8524;
1028216212381494;-0.1389;9.6824;0.8572;
1028216232379260;-0.1437;9.7112;0.8548;
1028216252376693;-0.1389;9.6968;0.8428;
1028216272374293;-0.1389;9.7112;0.8643;
1028216292371359;-0.1413;9.7088;0.8524;
1028216312369192;-0.1508;9.7136;0.8548;
1028216332366325;-0.1437;9.7208;0.8452;
1028216352364058;-0.1628;9.7208;0.8715;
1028216372361691;-0.1508;9.7232;0.8548;
1028216392358591;-0.1508;9.7064;0.8643;
1028216412356157;-0.1484;9.7088;0.8404;
1028216432353590;-0.1508;9.7040;0.8404;
1028216452351090;-0.1580;9.6920;0.8595;
1028216472348590;-0.1389;9.7040;0.8595;
1028216492346023;-0.1580;9.6944;0.8667;
1028216512343456;-0.1389;9.7112;0.8524;
1028216532340956;-0.1484;9.7184;0.8476;
1028216552338456;-0.1652;9.6920;0.8572;
1028216572335889;-0.1484;9.7160;0.8548;
1028216592333389;-0.1484;9.7016;0.8595;
1028216612330889;-0.1461;9.7064;0.8500;
1028216632328422;-0.1437;9.7184;0.8572;
1028216652325888;-0.1389;9.7016;0.8739;
1028216672323421;-0.1389;9.7088;0.8524;
1028216692320954;-0.1484;9.7088;0.8643;
1028216712318420;-0.1556;9.6848;0.8524;
1028216732315886;-0.1365;9.7040;0.8500;
1028216752313419;-0.1508;9.7088;0.8500;
1028216772310952;-0.1604;9.7112;0.8452;
1028216792308418;-0.1628;9.7327;0.8739;
1028216812305918;-0.1556;9.7255;0.8500;
1028216832303418;-0.1652;9.7232;0.8619;
1028216852301318;-0.1604;9.7112;0.8500;
1028216872299118;-0.1484;9.7064;0.8619;
1028216892297451;-0.1652;9.7064;0.8619;
1028216912295084;-0.1389;9.7016;0.8524;
1028216932293350;-0.1508;9.7160;0.8619;
1028216952290983;-0.1652;9.7040;0.8572;
1028216972288616;-0.1461;9.7136;0.8548;
1028216992286882;-0.1484;9.7208;0.8332;
1028217012284448;-0.1556;9.7112;0.8476;
1028217032282081;-0.1676;9.7160;0.8548;
1028217052279714;-0.1461;9.6992;0.8595;
1028217072277280;-0.1532;9.7136;0.8476;
1028217092274913;-0.1413;9.7112;0.8739;
1028217112272546;-0.1580;9.7136;0.8643;
1028217132270179;-0.1556;9.7016;0.8452;
1028217152267745;-0.1652;9.7184;0.8667;
1028217172265378;-0.1461;9.7112;0.8667;
1028217192263011;-0.1652;9.7016;0.8548;
1028217212260577;-0.1604;9.7184;0.8619;
1028217232258110;-0.1652;9.7088;0.8404;
1028217252255043;-0.1652;9.6992;0.8524;
1028217272251976;-0.1437;9.7088;0.8548;
1028217292248842;-0.1484;9.7040;0.8595;
1028217312246475;-0.1628;9.7088;0.8524;
1028217332243408;-0.1437;9.7064;0.8500;
1028217352240974;-0.1484;9.7232;0.8595;
1028217372238540;-0.1556;9.7160;0.8548;
1028217392235740;-0.1365;9.6992;0.8476;
1028217412233373;-0.1508;9.6968;0.8452;
1028217432230939;-0.1413;9.7016;0.8428;
1028217452228505;-0.1484;9.7184;0.8595;
1028217472226005;-0.1293;9.7064;0.8428;
1028217492223438;-0.1532;9.7088;0.8308;
1028217512220871;-0.1580;9.6992;0.8356;
1028217532218371;-0.1556;9.7064;0.8595;
1028217552215871;-0.1461;9.7040;0.8619;
1028217572246637;-0.1796;9.6944;0.8524;
1028217592277470;-0.1652;9.7088;0.8667;
1028217612341636;-0.1676;9.7088;0.8643;
1028217632405736;-0.1484;9.7040;0.8572;
1028217652469869;-0.1341;9.7088;0.8428;
1028217672534069;-0.1389;9.7112;0.8308;
1028217692598269;-0.1293;9.7208;0.8356;
1028217712695735;-0.1461;9.6992;0.8643;
1028217732793201;-0.1484;9.7136;0.8667;
1028217752890734;-0.1389;9.7088;0.8667;
1028217773021534;-0.1365;9.7064;0.8835;
1028217793185667;-0.1269;9.6896;0.8715;
1028217813383200;-0.1389;9.7136;0.8500;
1028217833580666;-0.1365;9.7088;0.8572;
1028217853778799;-0.1461;9.6944;0.8595;
1028217873976932;-0.1389;9.7112;0.8356;
1028217894175198;-0.1389;9.7208;0.8500;
1028217914372831;-0.1461;9.7040;0.8380;
1028217934571197;-0.1437;9.7136;0.8380;
1028217954768963;-0.1580;9.6992;0.8428;
1028217975000063;-0.1508;9.6872;0.8260;
1028217995264929;-0.1772;9.7064;0.8500;
1028218015529362;-0.1437;9.6968;0.8548;
1028218035793795;-0.1437;9.6968;0.8619;
1028218056058228;-0.1508;9.7088;0.8500;
1028218076322661;-0.1461;9.7112;0.8500;
1028218096587161;-0.1700;9.7208;0.8476;
1028218116851594;-0.1461;9.6920;0.8548;
1028218137116027;-0.1748;9.7016;0.8500;
1028218157380460;-0.1580;9.7016;0.8619;
1028218177611560;-0.1556;9.6992;0.8691;
1028218197842660;-0.1293;9.7064;0.8524;
1028218218040426;-0.1437;9.6920;0.8428;
1028218238271592;-0.1389;9.6992;0.8284;
1028218258501958;-0.1341;9.7088;0.8452;
1028218278732291;-0.1556;9.7088;0.8428;
1028218298962657;-0.1365;9.6968;0.8236;
1028218319159890;-0.1532;9.7088;0.8428;
1028218339357623;-0.1532;9.7040;0.8476;
1028218359554923;-0.1604;9.7040;0.8500;
1028218379719423;-0.1532;9.7136;0.8404;
1028218399850523;-0.1389;9.7208;0.8524;
1028218419948289;-0.1317;9.7040;0.8500;
1028218440046122;-0.1532;9.7040;0.8572;
1028218460143888;-0.1484;9.6944;0.8524;
1028218480241654;-0.1341;9.7184;0.8548;
1028218500339354;-0.1389;9.7136;0.8452;
1028218520436987;-0.1484;9.7064;0.8428;
1028218540534520;-0.1437;9.7112;0.8524;
1028218560632020;-0.1437;9.7208;0.8500;
1028218580696186;-0.1317;9.7040;0.8452;
1028218600727019;-0.1580;9.7160;0.8595;
1028218620757785;-0.1365;9.7184;0.8595;
1028218640788618;-0.1532;9.7112;0.8619;
1028218660819451;-0.1389;9.7279;0.8524;
1028218680850217;-0.1413;9.7064;0.8524;
1028218700880983;-0.1508;9.7064;0.8476;
1028218720911816;-0.1269;9.6992;0.8643;
1028218740942649;-0.1461;9.7016;0.8476;
1028218760973415;-0.1245;9.7040;0.8404;
1028218781004281;-0.1580;9.7016;0.8572;
1028218801035147;-0.1389;9.7064;0.8380;
1028218821065947;-0.1532;9.7088;0.8524;
1028218841063413;-0.1461;9.7040;0.8572;
1028218861061646;-0.1628;9.7064;0.8595;
1028218881059912;-0.1341;9.7160;0.8691;
1028218901058078;-0.1556;9.7136;0.8524;
1028218921056111;-0.1484;9.7160;0.8619;
1028218941053644;-0.1604;9.7112;0.8595;
1028218961051544;-0.1461;9.7016;0.8404;
1028218981049010;-0.1580;9.7160;0.8572;
1028219001046576;-0.1461;9.7160;0.8524;
1028219021044209;-0.1484;9.6992;0.8595;
1028219041041775;-0.1652;9.6896;0.8548;
1028219061039408;-0.1341;9.7064;0.8404;
1028219081037041;-0.1461;9.7136;0.8500;
1028219101067941;-0.1484;9.7064;0.8476;
1028219121098841;-0.1461;9.6968;0.8404;
1028219141129807;-0.1484;9.7040;0.8428;
1028219161160773;-0.1413;9.7040;0.8476;
1028219181191673;-0.1532;9.7064;0.8476;
1028219201222573;-0.1389;9.7112;0.8524;
1028219221253539;-0.1389;9.7255;0.8691;
1028219241284439;-0.1652;9.7232;0.8500;
1028219261314639;-0.1580;9.6920;0.8476;
1028219281347505;-0.1580;9.6968;0.8572;
1028219301377771;-0.1317;9.7136;0.8643;
1028219321407971;-0.1461;9.6896;0.8380;
1028219341438871;-0.1724;9.6872;0.8572;
1028219361469137;-0.1628;9.7160;0.8548;
1028219381500070;-0.1532;9.7112;0.8476;
1028219401530970;-0.1580;9.7327;0.8548;
1028219421561936;-0.1365;9.6992;0.8476;
1028219441592902;-0.1508;9.7064;0.8452;
1028219461623802;-0.1437;9.6968;0.8619;
1028219481654702;-0.1413;9.6920;0.8595;
1028219501685668;-0.1413;9.6992;0.8572;
1028219521749968;-0.1461;9.7016;0.8524;
1028219541847534;-0.1652;9.6968;0.8667;
1028219561945167;-0.1413;9.7088;0.8524;
1028219582042767;-0.1389;9.7088;0.8500;
1028219602173600;-0.1461;9.7303;0.8524;
1028219622304366;-0.1628;9.7184;0.8404;
1028219642435199;-0.1532;9.7184;0.8643;
1028219662565965;-0.1628;9.7016;0.8595;
1028219682696731;-0.1532;9.7040;0.8524;
1028219702794231;-0.1628;9.6968;0.8715;
1028219722891731;-0.1604;9.7016;0.8572;
1028219742989164;-0.1461;9.7064;0.8548;
1028219763086597;-0.1269;9.6992;0.8524;
1028219783184097;-0.1628;9.7040;0.8572;
1028219803281563;-0.1604;9.7184;0.8452;
1028219823379029;-0.1484;9.7112;0.8548;
1028219843476562;-0.1628;9.7136;0.8476;
1028219863574795;-0.1484;9.7160;0.8452;
1028219883703695;-0.1461;9.7208;0.8500;
1028219903868528;-0.1580;9.6944;0.8500;
1028219924033428;-0.1437;9.7016;0.8500;
1028219944230894;-0.1389;9.6944;0.8667;
1028219964429060;-0.1580;9.7112;0.8643;
1028219984626526;-0.1580;9.7184;0.8548;
1028220004823959;-0.1389;9.7160;0.8572;
1028220025054759;-0.1508;9.7016;0.8595;
1028220045285659;-0.1532;9.7208;0.8404;
1028220065516692;-0.1604;9.7208;0.8595;
1028220085747725;-0.1389;9.7232;0.8715;
1028220105978791;-0.1628;9.7040;0.8667;
1028220126176591;-0.1484;9.6992;0.8380;
1028220146341057;-0.1484;9.7088;0.8500;
1028220166505523;-0.1365;9.7208;0.8619;
1028220186703323;-0.1437;9.7016;0.8428;
1028220206901123;-0.1389;9.7136;0.8548;
1028220227098923;-0.1580;9.6944;0.8548;
1028220247296023;-0.1461;9.7208;0.8619;
1028220267492956;-0.1508;9.7279;0.8476;
1028220287690056;-0.1461;9.7088;0.8428;
1028220307886922;-0.1556;9.7327;0.8476;
1028220328084722;-0.1580;9.7184;0.8476;
1028220348282588;-0.1628;9.7016;0.8572;
1028220368480388;-0.1508;9.7112;0.8595;
1028220388678188;-0.1365;9.6992;0.8476;
1028220408876021;-0.1437;9.7136;0.8500;
1028220429073787;-0.1437;9.7136;0.8619;
1028220449271553;-0.1532;9.7016;0.8667;
1028220469469353;-0.1532;9.6920;0.8619;
1028220489633886;-0.1508;9.7160;0.8428;
1028220509765019;-0.1389;9.7255;0.8548;
1028220529896152;-0.1556;9.7232;0.8524;
1028220549994018;-0.1461;9.7112;0.8500;
1028220570091818;-0.1389;9.6992;0.8524;
1028220590189618;-0.1580;9.6801;0.8595;
1028220610287484;-0.1484;9.7112;0.8572;
1028220630351984;-0.1508;9.7016;0.8476;
1028220650416317;-0.1461;9.6968;0.8595;
1028220670480583;-0.1508;9.7040;0.8572;
1028220690544849;-0.1676;9.6920;0.8476;
1028220710609015;-0.1484;9.7255;0.8476;
1028220730673115;-0.1413;9.7088;0.8452;
1028220750737281;-0.1269;9.7088;0.8667;
1028220770801447;-0.1461;9.7136;0.8643;
1028220790832213;-0.1556;9.7136;0.8500;
1028220810829713;-0.1532;9.7136;0.8524;
1028220830827213;-0.1365;9.7016;0.8715;
1028220850825413;-0.1772;9.7279;0.8691;
1028220870823813;-0.1317;9.7064;0.8548;
1028220890822046;-0.1580;9.7064;0.8643;
1028220910820512;-0.1317;9.6992;0.8476;
1028220930817978;-0.1413;9.7160;0.8380;
1028220950815444;-0.1628;9.7112;0.8548;
1028220970812977;-0.1532;9.7232;0.8548;
1028220990810510;-0.1532;9.7112;0.8595;
1028221010807976;-0.1389;9.7088;0.8667;
1028221030805509;-0.1580;9.7088;0.8524;
1028221050803042;-0.1532;9.7016;0.8595;
1028221070800475;-0.1413;9.7016;0.8548;
1028221090797908;-0.1532;9.7112;0.8619;
1028221110795408;-0.1341;9.7136;0.8572;
1028221130792941;-0.1484;9.7208;0.8643;
1028221150790574;-0.1580;9.6968;0.8572;
1028221170788307;-0.1341;9.6992;0.8595;
1028221190786073;-0.1508;9.7136;0.8572;
1028221210783839;-0.1484;9.7088;0.8595;
1028221230781605;-0.1652;9.7136;0.8572;
1028221250778738;-0.1484;9.6968;0.8643;
1028221270775638;-0.1484;9.7184;0.8548;
1028221290773404;-0.1389;9.7016;0.8595;
1028221310770537;-0.1556;9.7040;0.8572;
1028221330768370;-0.1532;9.6944;0.8572;
1028221350766203;-0.1628;9.7064;0.8452;
1028221370763269;-0.1389;9.7064;0.8691;
1028221390761102;-0.1484;9.6968;0.8595;
1028221410758935;-0.1604;9.7136;0.8643;
1028221430756701;-0.1676;9.7279;0.8667;
1028221450754467;-0.1461;9.7303;0.8524;
1028221470752267;-0.1484;9.7112;0.8691;
1028221490750067;-0.1461;9.7112;0.8572;
1028221510747800;-0.1628;9.7112;0.8667;
1028221530745600;-0.1461;9.7064;0.8500;
1028221550743400;-0.1604;9.7112;0.8524;
1028221570741133;-0.1556;9.6968;0.8595;
1028221590738899;-0.1245;9.7064;0.8380;
1028221610736732;-0.1556;9.7040;0.8452;
1028221630734565;-0.1389;9.7088;0.8500;
1028221650732331;-0.1437;9.7255;0.8524;
1028221670730164;-0.1556;9.7112;0.8643;
1028221690727997;-0.1532;9.7112;0.8763;
1028221710725763;-0.1508;9.7040;0.8548;
1028221730723496;-0.1508;9.7136;0.8572;
1028221750721129;-0.1532;9.7160;0.8715;
1028221770718729;-0.1437;9.7016;0.8404;
1028221790716229;-0.1269;9.7255;0.8548;
1028221810713729;-0.1317;9.7016;0.8476;
1028221830711229;-0.1293;9.7208;0.8476;
1028221850709429;-0.1484;9.7016;0.8643;
1028221870707795;-0.1365;9.7064;0.8452;
1028221890705295;-0.1437;9.7040;0.8356;
1028221910703495;-0.1461;9.7040;0.8524;
1028221930700928;-0.1508;9.7016;0.8595;
1028221950698361;-0.1556;9.7112;0.8619;
1028221970696561;-0.1532;9.7064;0.8595;
1028221990694061;-0.1652;9.7112;0.8619;
1028222010691527;-0.1676;9.7136;0.8548;
1028222030689060;-0.1604;9.7136;0.8739;
1028222050686593;-0.1365;9.7088;0.8643;
1028222070684059;-0.1484;9.7184;0.8572;
1028222090681525;-0.1389;9.7112;0.8428;
1028222110679058;-0.1437;9.6968;0.8476;
1028222130676591;-0.1532;9.7136;0.8069;
1028222150674057;-0.1293;9.7016;0.8524;
1028222170671590;-0.1317;9.7040;0.8572;
1028222190669090;-0.1532;9.7136;0.8715;
1028222210666556;-0.1580;9.7255;0.8715;
1028222230664056;-0.1413;9.7112;0.8595;
1028222250660989;-0.1556;9.7064;0.8572;
1028222270657689;-0.1604;9.7184;0.8619;
1028222290654555;-0.1652;9.7208;0.8380;
1028222310651255;-0.1413;9.7136;0.8691;
1028222330648888;-0.1580;9.6968;0.8332;
1028222350646521;-0.1628;9.7136;0.8595;
1028222370643654;-0.1556;9.7112;0.8380;
1028222390641287;-0.1532;9.7184;0.8476;
1028222410638920;-0.1437;9.7040;0.8548;
1028222430636486;-0.1461;9.7208;0.8572;
1028222450634052;-0.1437;9.7016;0.8643;
1028222470631685;-0.1413;9.7208;0.8572;
1028222490629318;-0.1317;9.7136;0.8715;
1028222510626884;-0.1149;9.7160;0.8380;
1028222530624517;-0.1197;9.7255;0.8548;
1028222550622150;-0.1484;9.7088;0.8667;
1028222570619716;-0.1652;9.7136;0.8476;
1028222590617282;-0.1580;9.7232;0.8524;
1028222610614882;-0.1652;9.6944;0.8452;
1028222630612515;-0.1580;9.7016;0.8572;
1028222650610081;-0.1580;9.7184;0.8524;
1028222670607714;-0.1556;9.6968;0.8500;
1028222690605347;-0.1556;9.7279;0.8500;
1028222710602980;-0.1484;9.7064;0.8715;
1028222730600546;-0.1269;9.7136;0.8548;
1028222750598179;-0.1389;9.7112;0.8595;
1028222770595812;-0.1293;9.7136;0.8715;
1028222790593378;-0.1365;9.7279;0.8619;
1028222810590978;-0.1293;9.7279;0.8595;
1028222830588544;-0.1365;9.7184;0.8572;
1028222850586744;-0.1269;9.7184;0.8715;
1028222870585110;-0.1556;9.7040;0.8428;
1028222890583310;-0.1508;9.7112;0.8643;
1028222910581743;-0.1676;9.7136;0.8476;
1028222930579176;-0.1748;9.7160;0.8500;
1028222950576609;-0.1628;9.7184;0.8595;
1028222970574542;-0.1724;9.6944;0.8308;
1028222990572042;-0.1748;9.7232;0.8835;
1028223010569475;-0.1700;9.7160;0.8380;
1028223030567008;-0.1508;9.7279;0.8739;
1028223050564541;-0.1389;9.7112;0.8595;
1028223070562007;-0.1317;9.6801;0.8667;
1028223090559473;-0.1197;9.7136;0.8787;
1028223110557006;-0.1149;9.6992;0.8284;
1028223130554539;-0.1173;9.7112;0.8643;
1028223150552005;-0.1341;9.7112;0.8117;
1028223170549538;-0.1365;9.7064;0.8787;
1028223190547071;-0.1461;9.7040;0.8260;
1028223210544604;-0.1413;9.6944;0.8524;
1028223230542037;-0.1628;9.7064;0.8380;
1028223250538837;-0.1484;9.7136;0.8619;
1028223270535437;-0.1676;9.7040;0.8524;
1028223290532370;-0.1844;9.7327;0.8667;
1028223310530036;-0.1532;9.7184;0.8356;
1028223330527802;-0.1652;9.7064;0.8667;
1028223350525635;-0.1508;9.7208;0.8404;
1028223370522701;-0.1556;9.7303;0.8572;
1028223390520534;-0.1293;9.7088;0.8380;
1028223410518367;-0.1173;9.6968;0.8715;
1028223430516133;-0.1173;9.7184;0.8595;
1028223450513899;-0.1125;9.7232;0.8595;
1028223470511732;-0.1197;9.6992;0.8404;
1028223490509565;-0.1317;9.7375;0.8739;
1028223510507331;-0.1293;9.7136;0.8428;
1028223530505164;-0.1580;9.7184;0.8524;
1028223550502997;-0.1676;9.7232;0.8667;
1028223570500763;-0.1580;9.7160;0.8524;
1028223590498529;-0.1915;9.7088;0.8859;
1028223610496362;-0.1772;9.6944;0.8308;
1028223630494162;-0.1772;9.7016;0.8691;
1028223650491895;-0.1676;9.6968;0.8572;
1028223670489695;-0.1580;9.7088;0.8595;
1028223690487495;-0.1389;9.7303;0.8715;
1028223710485295;-0.1317;9.6729;0.8212;
1028223730483028;-0.1437;9.7184;0.8500;
1028223750480861;-0.1317;9.7303;0.8883;
1028223770478694;-0.1269;9.7160;0.8404;
1028223790476460;-0.1317;9.7064;0.8404;
1028223810474226;-0.1341;9.7160;0.8404;
1028223830472059;-0.1389;9.6968;0.8595;
1028223850470592;-0.1532;9.6992;0.8476;
1028223870469258;-0.1844;9.6992;0.8548;
1028223890467591;-0.1748;9.7303;0.8691;
1028223910465191;-0.1628;9.7303;0.8667;
1028223930462691;-0.1556;9.7064;0.8619;
1028223950460124;-0.1556;9.7208;0.8476;
1028223970458324;-0.1628;9.7064;0.8404;
1028223990455824;-0.1508;9.7136;0.8763;
1028224010453257;-0.1580;9.7016;0.8643;
1028224030450757;-0.1317;9.7040;0.8284;
1028224050448257;-0.1293;9.7088;0.8260;
1028224070445690;-0.1269;9.6896;0.8428;
1028224090443123;-0.1269;9.6992;0.8452;
1028224110440623;-0.1341;9.6848;0.8452;
1028224130438123;-0.1532;9.7184;0.8595;
1028224150435589;-0.1317;9.7232;0.8595;
1028224170433122;-0.1389;9.7160;0.8595;
1028224190430655;-0.1532;9.6992;0.8500;
1028224210428188;-0.1484;9.7327;0.8739;
1028224230425654;-0.1532;9.7279;0.8667;
1028224250422487;-0.1532;9.6992;0.8548;
1028224270419320;-0.1604;9.7136;0.8332;
1028224290416086;-0.1580;9.7040;0.8572;
1028224310412619;-0.1556;9.7064;0.8595;
1028224330410152;-0.1556;9.7255;0.8284;
1028224350407652;-0.1484;9.6992;0.8643;
1028224370405152;-0.1676;9.7040;0.8141;
1028224390402785;-0.1437;9.7064;0.8548;
1028224410400418;-0.1556;9.7232;0.8308;
1028224430397984;-0.1221;9.6968;0.8739;
1028224450395550;-0.1508;9.7136;0.8452;
1028224470393183;-0.1413;9.7160;0.8643;
1028224490390816;-0.1437;9.6920;0.8404;
1028224510388382;-0.1317;9.6968;0.8595;
1028224530386015;-0.1484;9.7184;0.8500;
1028224550383648;-0.1389;9.7184;0.9026;
