Sensor: LSM6DSL Gyroscope
Vendor: STM
TimestampGyro [ns]; GyroX [rad/s]; GyroY [rad/s]; GyroZ [rad/s]
475003505174285;0.0189;-0.0919;0.0760;
475003565167189;-0.0196;-0.1163;0.0736;
475003605251160;0.1075;0.0633;-0.1005;
475003635195049;-0.0428;0.0333;-0.1152;
475003660203513;-0.0654;-0.0986;0.1090;
475003682669860;-0.0037;-0.0461;-0.1109;
475003703906034;0.1362;0.0694;-0.0902;
475003724546851;-0.0061;-0.0351;-0.0168;
475003745360702;-0.0012;-0.0271;0.0302;
475003765246493;0.1215;-0.0302;-0.0059;
475003785215273;0.1014;-0.0162;-0.0303;
475003805178663;0.0024;0.0113;-0.0205;
475003825176935;0.0379;-0.0821;0.0284;
475003845159379;0.1991;-0.0412;-0.0034;
475003865149985;-0.1026;0.1219;-0.1592;
475003885163481;0.1637;-0.0528;0.0687;
475003905168190;0.0079;-0.1402;0.2104;
475003925180795;0.0770;-0.0168;-0.0297;
475003945190405;0.0592;0.0174;0.0131;
475003965171845;0.0195;-0.0778;0.0571;
475003985156622;0.0672;-0.0333;0.0167;
475004005149972;-0.0251;-0.0302;0.0461;
475004025188724;0.0617;-0.0626;0.0448;
475004046217081;0.0849;-0.0699;0.0742;
475004065680394;0.0702;-0.0870;0.0613;
475004085412416;-0.0751;-0.0094;-0.0004;
475004105277004;-0.0788;-0.0357;0.0180;
475004125246221;0.0947;-0.1059;0.1212;
475004145196118;0.0818;-0.1072;0.0613;
475004165214874;0.0232;0.0168;-0.0340;
475004185182444;0.0159;-0.0174;-0.0456;
475004205164941;-0.1240;-0.1127;0.1609;
475004225191939;-0.0251;-0.1322;0.0558;
475004245213131;0.1044;-0.0430;-0.0511;
475004265219304;-0.0104;-0.0107;-0.0688;
475004285222794;-0.0727;-0.0430;-0.0205;
475004305249577;-0.0593;-0.1157;0.0363;
475004325257680;0.1637;-0.0748;0.0100;
475004346103405;0.0550;-0.0467;-0.0584;
475004365624652;0.0043;-0.0241;-0.0541;
475004385380641;0.0794;-0.0198;-0.0572;
475004405284366;-0.0458;-0.1328;0.0247;
475004425235902;-0.1240;-0.0754;0.0442;
475004445214266;0.1600;-0.0449;-0.1806;
475004465200910;0.1099;0.0327;-0.0474;
475004485216366;-0.1973;-0.0583;-0.0272;
475004505221248;0.1136;-0.0815;-0.0095;
475004525229900;0.1820;-0.0204;-0.0456;
475004545221246;-0.0684;0.0034;-0.1219;
475004565218630;-0.1161;-0.0522;-0.0016;
475004585222303;0.0794;-0.1463;0.0534;
475004605223409;0.1148;-0.0821;-0.0394;
475004625222519;-0.0782;-0.0125;-0.0407;
475004645223671;-0.0489;-0.0058;-0.1256;
475004665220304;0.0531;-0.0626;0.0412;
475004685229428;0.1044;-0.1286;0.0167;
475004705227490;0.0049;-0.0577;-0.0407;
475004725230425;-0.0519;-0.0540;-0.0431;
475004745224874;-0.0141;-0.1487;0.0503;
475004765224117;0.0904;-0.1102;0.0088;
475004785223296;-0.0568;-0.0082;-0.0840;
475004805227347;-0.0751;-0.0436;-0.0535;
475004825225565;0.1393;-0.1328;0.0858;
475004845224482;0.0250;-0.1377;0.0070;
475004865226210;-0.0153;-0.0601;-0.0346;
475004885225074;-0.0336;-0.0833;-0.0193;
475004905223063;0.1350;-0.1090;0.0424;
475004925221692;0.0910;-0.1133;-0.0065;
475004945225276;-0.0678;-0.0711;-0.0462;
475004965197741;0.0293;-0.0980;-0.0162;
475004985207955;0.0751;-0.1505;-0.0254;
475005005217331;0.0079;-0.1133;0.0222;
475005025223423;-0.0336;-0.1090;-0.0553;
475005045224545;0.0635;-0.0760;-0.0175;
475005065245010;0.0379;-0.1194;-0.0572;
475005085203608;0.0092;-0.1432;-0.0095;
475005105212696;-0.0092;-0.1200;0.0088;
475005125202240;0.0727;-0.1127;-0.0480;
475005145224069;0.0800;-0.1224;0.0167;
475005165220945;0.0256;-0.1579;-0.0340;
475005185221364;-0.0226;-0.1047;-0.0401;
475005205221458;-0.0226;-0.1359;-0.0101;
475005225224332;0.1051;-0.1041;-0.0376;
475005245225308;-0.0159;-0.1182;0.0106;
475005265226546;-0.0403;-0.1621;-0.0150;
475005285227530;0.0843;-0.1237;-0.0046;
475005305894484;0.1032;-0.1450;-0.0474;
475005325522191;-0.0244;-0.1231;0.0247;
475005345728429;-0.0751;-0.1518;-0.0248;
475005365439337;0.0501;-0.1432;0.0045;
475005385310002;0.0067;-0.1279;-0.0523;
475005405222912;-0.0141;-0.1102;-0.0272;
475005425204078;-0.0727;-0.1273;0.0253;
475005445189392;0.0098;-0.1286;-0.0462;
475005465181741;0.0140;-0.1133;-0.0266;
475005485199224;-0.0208;-0.1420;-0.0126;
475005505213138;-0.0697;-0.1695;0.0259;
475005525233403;-0.0135;-0.1567;-0.0468;
475005545783824;0.1087;-0.0772;-0.0633;
475005565501304;0.0293;-0.1279;-0.0346;
475005585323813;-0.0489;-0.1634;0.0198;
475005605271394;0.0061;-0.1597;-0.0352;
475005625243223;0.0550;-0.1163;-0.0297;
475005645232715;0.0623;-0.1328;-0.0156;
475005665236153;0.0751;-0.1866;0.0284;
475005685231987;-0.0599;-0.1365;-0.0511;
475005706033270;0.0360;-0.1432;-0.0504;
475005725624411;0.1069;-0.1799;0.0070;
475005745821847;0.0153;-0.1621;0.0033;
475005766126430;-0.0861;-0.1212;-0.0920;
475005785631414;0.0293;-0.1072;-0.0767;
475005805896214;0.0983;-0.1438;-0.0535;
475005825514614;0.0867;-0.1621;0.0186;
475005845371545;-0.0025;-0.1359;-0.0498;
475005865257779;-0.1350;-0.0748;-0.0816;
475005885238069;0.1472;-0.1249;-0.0321;
475005905192022;0.1564;-0.1848;0.0754;
475005925207191;-0.0092;-0.1628;-0.0199;
475005945179429;-0.1216;-0.0449;-0.1732;
475005965190164;0.0922;-0.1053;-0.0193;
475005985235646;0.0867;-0.1835;-0.0156;
475006005223022;-0.0947;-0.1243;0.0106;
475006025217633;-0.1069;-0.0461;-0.1653;
475006045214381;0.1521;-0.1053;-0.0010;
475006065179293;0.1484;-0.1829;0.0516;
475006085194903;-0.0910;-0.1469;0.0143;
475006105205670;-0.1301;-0.1059;-0.0706;
475006125210515;0.1655;-0.1145;-0.0223;
475006145182514;0.1435;-0.1536;0.0180;
475006165197475;-0.0947;-0.1267;-0.0120;
475006185168148;-0.0703;-0.1224;-0.0529;
475006205182831;0.0721;-0.1005;-0.0333;
475006225183095;-0.0336;-0.1041;-0.0297;
475006245164920;-0.0312;-0.1414;-0.0046;
475006265179082;-0.0086;-0.1359;0.0064;
475006285177375;0.0910;-0.0876;-0.1158;
475006305182560;0.0208;-0.0748;-0.0511;
475006325182710;-0.0965;-0.1469;0.0259;
475006345186015;0.1179;-0.2019;0.0277;
475006365175091;0.1374;-0.1053;-0.0889;
475006385191571;-0.0868;-0.0449;-0.0767;
475006405204427;-0.1234;-0.1347;-0.0511;
475006425216393;0.1545;-0.1353;0.0235;
475006445219838;0.1509;-0.1133;-0.0621;
475006465222849;0.0165;-0.1011;-0.0590;
475006485224258;-0.1674;-0.1237;0.0302;
475006505224751;0.0574;-0.1310;-0.0969;
475006525232651;0.1576;-0.0888;0.0113;
475006545227986;-0.1008;-0.1395;-0.0865;
475006565224807;-0.0519;-0.1261;0.0931;
475006585224891;0.0550;-0.1029;-0.1616;
475006605224914;0.1765;-0.0833;0.0265;
475006625224406;-0.0898;-0.2232;0.0546;
475006645224613;-0.0635;-0.0931;-0.0303;
475006665225563;0.0299;-0.0339;-0.1329;
475006685227846;0.1674;-0.1243;0.0326;
475006705188083;0.1063;-0.2293;0.0956;
475006725368529;-0.0709;-0.0803;-0.0859;
475006745263829;-0.0116;-0.0473;-0.0987;
475006765230536;0.1124;-0.1768;0.0473;
475006785247274;-0.0110;-0.1658;-0.0144;
475006805210124;-0.2547;-0.0479;-0.0950;
475006825191876;-0.0819;-0.1402;0.0131;
475006845181464;0.2730;-0.1689;0.0320;
475006865203219;-0.0587;-0.1334;0.0210;
475006885215347;-0.3256;-0.0565;-0.1219;
475006905223007;0.0030;-0.1389;-0.0107;
475006925227087;0.2352;-0.2122;0.0742;
475006945225781;-0.0018;-0.1377;-0.0682;
475006965227435;-0.3036;-0.0876;-0.0498;
475006985229089;0.1814;-0.2245;0.1267;
475007005227839;0.2620;-0.1420;-0.0596;
475007025225387;-0.1747;-0.0540;-0.0889;
475007045187527;-0.1979;-0.1860;0.0650;
475007065170193;0.2254;-0.2135;0.0907;
475007085158295;0.2529;-0.1628;-0.0700;
475007105152019;-0.1112;-0.0278;-0.0853;
475007125153016;-0.2389;-0.1395;-0.0663;
475007145164149;0.1704;-0.2556;0.1377;
475007165203619;0.2529;-0.1640;-0.0682;
475007185186816;-0.1179;-0.0833;-0.1103;
475007205213126;-0.2047;-0.1793;0.0302;
475007225224185;0.1154;-0.1756;-0.0401;
475007245228272;-0.0635;-0.1102;-0.0914;
475007265229681;-0.0086;-0.0754;-0.0871;
475007285228020;-0.0348;-0.1878;0.0540;
475007305238805;0.0935;-0.2464;0.0675;
475007325236928;-0.0006;-0.0992;-0.1628;
475007345236143;-0.0666;-0.0571;-0.1231;
475007365234482;0.0831;-0.1475;-0.0077;
475007385238343;0.1081;-0.2220;0.0864;
475007405233966;0.0146;-0.1340;-0.0449;
475007425230624;-0.0605;-0.0785;-0.1073;
475007445226645;0.0818;-0.1835;0.0143;
475007465226367;0.1558;-0.1402;-0.0242;
475007485230517;-0.0672;-0.0565;-0.1109;
475007505228976;-0.0202;-0.1340;0.0064;
475007525204475;0.0782;-0.2006;0.0522;
475007545182205;0.0311;-0.1420;0.0088;
475007565217859;0.0458;-0.0809;-0.1152;
475007585184763;-0.0715;-0.1114;-0.1152;
475007605197195;0.0330;-0.1738;0.0210;
475007625199123;0.0629;-0.1310;-0.0297;
475007645209760;0.1307;-0.1450;-0.0016;
475007665212078;0.0831;-0.1927;0.0534;
475007685183911;-0.0703;-0.1878;-0.0077;
475007705162058;-0.0147;-0.1188;-0.0480;
475007725175131;0.2285;-0.1609;0.0241;
475007745164437;0.0513;-0.1438;0.0247;
475007765160513;-0.2089;-0.0614;-0.0724;
475007785152570;-0.0758;-0.1133;-0.0138;
475007805143349;0.2034;-0.1829;0.0925;
475007825164488;-0.0354;-0.1176;-0.0285;
475007845176346;-0.1564;-0.0974;-0.0566;
475007865174506;0.0311;-0.1731;0.0503;
475007885180759;0.1057;-0.1878;0.0021;
475007905181309;0.0330;-0.1536;0.0100;
475007925158103;-0.0403;-0.1560;-0.0278;
475007945169673;0.0153;-0.1292;-0.0168;
475007965174227;0.0366;-0.1567;-0.0419;
475007985183985;0.0293;-0.1872;0.0387;
475008005186229;0.0476;-0.1438;-0.0175;
475008025180255;0.0965;-0.1719;-0.0095;
475008045176364;0.0275;-0.1652;0.0131;
475008065172092;0.0806;-0.1463;-0.0407;
475008085172610;0.0592;-0.1231;-0.0315;
475008105198830;-0.0116;-0.1676;0.0106;
475008125218152;0.0171;-0.1585;0.0045;
475008145230947;0.0116;-0.1365;-0.0682;
475008165233076;-0.0128;-0.1395;0.0045;
475008185226563;0.0715;-0.1542;-0.0205;
475008205222884;0.0458;-0.1359;-0.0101;
475008225179006;0.1051;-0.1719;-0.0468;
475008245190105;0.1020;-0.2281;0.0778;
475008265192616;0.1692;-0.2147;-0.0278;
475008285195487;0.0886;-0.1194;-0.0614;
475008305196538;0.1368;-0.1591;-0.0706;
475008325212813;0.1350;-0.2385;0.1004;
475008345222605;0.0892;-0.1542;-0.0785;
475008365224001;0.0354;-0.0717;-0.0767;
475008385233545;0.0104;-0.1408;-0.0144;
475008405228817;0.0751;-0.2245;0.0876;
475008425240068;0.0935;-0.1621;0.0076;
475008445212694;0.0055;-0.1121;-0.0504;
475008465184103;-0.0037;-0.1957;-0.0120;
475008485163807;0.0214;-0.2599;0.0992;
475008505181852;0.0305;-0.2019;0.0149;
475008525180874;0.0617;-0.1163;-0.1268;
475008545177116;-0.0220;-0.1237;-0.0657;
475008565176891;-0.1692;-0.2489;0.0766;
475008585228201;0.1881;-0.2910;0.0510;
475008605192126;0.1051;-0.0919;-0.1580;
475008625162530;-0.4881;-0.0094;-0.2325;
475008645168559;0.2297;-0.3051;0.2031;
475008665190766;0.1808;-0.4945;0.3100;
475008685164139;-0.0861;-0.0094;-0.0486;
475008705180729;-0.3323;0.1036;-0.4878;
475008725167563;0.3341;-0.4786;0.3588;
475008745168306;0.1215;-0.1585;0.5732;
475008765178370;-0.3647;0.0529;-0.3718;
475008785178075;-0.4295;0.0217;-0.2588;
475008805199197;0.6982;-0.4456;0.4327;
475008825209181;0.1955;-0.2819;0.2324;
475008845225269;-0.4319;0.2404;-0.5599;
475008865238929;-0.1875;-0.1432;-0.3314;
475008885237182;0.6518;-0.3521;0.4535;
475008905233462;0.0611;-0.0913;0.2018;
475008925230987;-0.3116;-0.0412;-0.2361;
475008945229595;-0.0483;-0.0620;0.0302;
475008965228495;0.2792;-0.1609;0.0534;
475008985226734;-0.1045;-0.0656;-0.1586;
475009005228142;-0.1063;-0.0180;-0.0578;
475009025227346;0.0116;-0.1634;-0.0248;
475009045226179;0.2205;-0.1738;0.0858;
475009065228345;0.0708;-0.0992;-0.1494;
475009085230390;-0.1155;-0.0461;-0.0614;
475009105230528;0.0519;-0.1524;-0.0010;
475009125190558;0.1851;-0.1756;0.0192;
475009145206073;0.0965;-0.1114;-0.0755;
475009165215638;-0.1521;-0.0461;-0.0810;
475009185220555;0.0171;-0.1536;-0.0132;
475009205224302;0.1631;-0.1389;0.0571;
475009225226157;-0.0031;-0.0943;0.0271;
475009245224276;-0.1601;-0.1359;0.0058;
475009265225663;0.0941;-0.1145;0.0357;
475009285225029;0.1765;-0.1133;0.0345;
475009305224328;-0.0923;-0.1249;0.0351;
475009325224246;-0.1087;-0.1066;0.0180;
475009345224571;0.0250;-0.0992;0.0235;
475009365225156;0.1240;-0.1279;0.0540;
475009385225276;-0.0574;-0.1365;0.0711;
475009405224163;-0.1313;-0.1255;0.0210;
475009425225087;0.0574;-0.0803;0.0082;
475009445225684;0.0800;-0.1151;0.0082;
475009465225136;-0.0929;-0.1976;0.0644;
475009485235343;0.0360;-0.1890;0.0552;
475009505228485;0.0660;-0.1206;-0.0504;
475009525195421;-0.0464;-0.1084;-0.0437;
475009545209254;-0.0293;-0.1609;0.0375;
475009565213459;-0.0128;-0.1915;0.0284;
475009585214235;0.0904;-0.1646;-0.0370;
475009605220834;-0.0483;-0.1340;-0.0407;
475009625222903;-0.0416;-0.1939;0.0522;
475009645224418;0.0770;-0.1902;-0.0407;
475009665231291;0.0892;-0.1298;-0.0517;
475009685201074;-0.1142;-0.1469;-0.0694;
475009705209235;-0.0281;-0.2055;0.0204;
475009725184142;0.0568;-0.1499;-0.0443;
475009745164999;-0.0709;-0.0406;-0.0278;
475009765158159;-0.1252;-0.1286;-0.0327;
475009785554893;0.0507;-0.1273;0.0644;
475009805344471;0.0275;-0.0840;-0.0651;
475009825255856;-0.1149;-0.0461;-0.0474;
475009845211491;-0.0935;-0.1603;0.0528;
475009865189328;0.0873;-0.2391;0.0992;
475009885181669;0.0880;-0.1243;-0.0217;
475009905180705;0.0122;-0.0271;-0.0517;
475009925177858;-0.0049;-0.1829;0.0815;
475009945172377;0.0495;-0.1823;0.1072;
475009965194348;0.1295;-0.0607;-0.0877;
475009985209852;0.2278;-0.1377;-0.0608;
475010005218008;-0.0764;-0.3314;0.2733;
475010025223086;-0.0470;-0.3417;0.1762;
475010045223029;0.1545;-0.1157;-0.0792;
475010065222039;0.0544;-0.1163;-0.2068;
475010085226313;-0.3525;-0.0821;-0.2258;
475010105227623;-0.0165;-0.0473;-0.1757;
475010125223009;0.2614;-0.1609;-0.0260;
475010145222914;0.2883;-0.2208;0.0736;
475010165186481;-0.2114;-0.3161;0.1988;
475010185204900;-0.1717;-0.0638;-0.0755;
475010205212532;0.7446;-0.0699;0.0106;
475010225219233;-0.1442;-0.1872;-0.0517;
475010245219929;-0.8375;0.0321;-0.1341;
475010265223047;0.4875;-0.0620;-0.1005;
475010285231279;0.5632;-0.2831;-0.0657;
475010305225452;-0.2963;-0.1316;0.1652;
475010325221423;-0.5217;-0.1512;-0.2331;
475010345221178;0.2700;-0.1872;0.1377;
475010365221806;0.4978;-0.3900;0.1420;
475010385224447;-0.1631;-0.0998;-0.1622;
475010405226229;-0.6426;-0.0748;-0.0706;
475010425226581;0.0049;-0.2055;0.0247;
475010445189430;0.7074;-0.1701;0.0259;
475010465214932;-0.5266;-0.1041;0.1139;
475010485229952;-0.5406;-0.0974;-0.1470;
475010505230154;0.5388;-0.0803;-0.0052;
475010525226717;0.4252;-0.2196;0.0027;
475010545184652;-0.1662;-0.1383;0.0174;
475010565200927;-0.4337;-0.0290;-0.0895;
475010585176622;0.3366;-0.1059;-0.0706;
475010605200701;0.5143;-0.2519;0.1218;
475010625214125;-0.1136;-0.2006;-0.0254;
475010645220337;-0.3476;-0.0589;-0.0987;
475010665224154;0.1600;-0.1542;-0.0443;
475010685193678;0.4019;-0.2678;0.1017;
475010705178152;-0.2810;-0.0510;-0.1543;
475010725408158;-0.3781;-0.0705;-0.0388;
475010746043180;0.2749;-0.2220;0.0155;
475010765605903;0.3201;-0.1377;0.0595;
475010785373130;-0.1521;-0.0937;-0.1152;
475010805278955;-0.1851;-0.0693;-0.0059;
475010825226617;0.1527;-0.1603;-0.0022;
475010845202410;0.2248;-0.1475;0.0546;
475010865188152;0.0018;-0.1493;-0.0052;
475010885182562;-0.0550;-0.0925;0.0003;
475010905179421;0.0721;-0.1121;-0.0492;
475010925155581;0.1729;-0.1487;0.1169;
475010945166757;-0.0025;-0.2122;0.1157;
475010965192114;-0.0739;-0.1059;-0.1060;
475010985207062;0.0788;-0.1493;0.0809;
475011005214344;0.1429;-0.2428;0.1029;
475011025221658;-0.1863;-0.1878;0.0766;
475011045227545;-0.1161;-0.0998;-0.0773;
475011065227354;0.0641;-0.1389;0.0656;
475011085228355;0.0592;-0.2574;0.1188;
475011105235605;-0.1863;-0.1646;0.0320;
475011125211884;-0.0978;-0.1053;-0.0162;
475011145218812;0.1704;-0.0974;-0.0297;
475011165180065;0.0030;-0.1731;0.0693;
475011185198614;-0.2376;-0.1707;0.1175;
475011205207177;0.1661;-0.1560;-0.0107;
475011225215190;0.1784;-0.2238;0.0192;
475011245219504;-0.0208;-0.2025;0.0620;
475011265223257;-0.1204;-0.1951;0.0143;
475011285225960;0.1197;-0.1573;0.0229;
475011305225139;0.2449;-0.2019;0.0021;
475011325233594;-0.0556;-0.2300;0.0919;
475011345226783;-0.0831;-0.1927;0.0003;
475011365222935;0.0446;-0.1573;-0.0217;
475011385222530;0.2718;-0.1628;-0.0010;
475011405222443;0.0085;-0.1603;0.0320;
475011425221899;-0.0672;-0.2165;0.0290;
475011445223493;0.0336;-0.1249;-0.0022;
475011465222771;-0.0055;-0.1652;-0.0388;
475011485221544;-0.1784;-0.2391;0.1017;
475011505249431;-0.0177;-0.2281;-0.0095;
475011525244086;0.1283;-0.1114;-0.0932;
475011545234702;-0.0434;-0.1927;-0.0120;
475011565229856;-0.0519;-0.2629;0.0821;
475011585228298;0.0183;-0.2183;-0.0010;
475011605226096;0.1374;-0.1279;-0.0602;
475011625223649;0.0580;-0.1738;-0.0327;
475011645184348;-0.0617;-0.2733;0.1298;
475011665203044;0.0916;-0.2190;0.0491;
475011685215738;0.2175;-0.0888;-0.1323;
475011705181643;-0.1142;-0.2275;0.1359;
475011725169095;0.0385;-0.2862;0.1737;
475011745161494;0.1399;-0.1469;-0.0504;
475011765879098;0.0910;-0.0846;-0.0553;
475011785988150;0.0024;-0.1976;0.0956;
475011805573003;0.0519;-0.2800;0.1664;
475011825382083;0.0727;-0.1780;0.0332;
475011845255412;0.0116;-0.0925;-0.0370;
475011865241384;0.0146;-0.2770;0.1298;
475011885232447;0.1130;-0.2355;0.1609;
475011905227997;-0.1185;-0.1194;-0.1366;
475011925225907;-0.0232;-0.0785;-0.0205;
475011945196785;0.1087;-0.2300;0.1035;
475011965205320;-0.0648;-0.1762;0.0284;
475011985205415;-0.1949;-0.0614;-0.0663;
475012005216193;-0.0422;-0.0766;-0.0767;
475012025222870;0.1161;-0.1878;0.1029;
475012045222786;-0.1094;-0.1548;0.0015;
475012065222013;-0.1472;-0.1005;-0.0156;
475012085223723;-0.0189;-0.1182;-0.0657;
475012105228520;0.0189;-0.1328;0.0198;
475012125185611;-0.0672;-0.1866;-0.0095;
475012145199964;-0.0806;-0.0962;-0.0266;
475012165194698;-0.0379;-0.1450;-0.0834;
475012185202757;0.1356;-0.1139;-0.0187;
475012205199556;-0.0959;-0.1261;0.1279;
475012225214494;-0.1546;-0.0430;-0.1183;
475012245220155;-0.0373;-0.0210;-0.1030;
475012265222428;0.1423;-0.1597;0.1108;
475012285222392;-0.0495;-0.1298;0.0277;
475012305224277;-0.2040;-0.0473;-0.0871;
475012325224585;-0.0800;-0.0192;-0.0914;
475012345224720;0.1448;-0.1188;0.0003;
475012365182999;0.0690;-0.2116;0.1597;
475012385203927;-0.0813;-0.0479;-0.0938;
475012405212314;-0.0855;-0.0082;-0.1464;
475012425216585;0.1313;-0.1255;0.0668;
475012445216605;0.1643;-0.2177;0.0436;
475012465217153;-0.3653;0.0620;-0.2148;
475012485220292;0.1411;0.0052;-0.0382;
475012505230112;0.1521;-0.1701;0.1450;
475012525185830;0.0104;-0.0968;0.0387;
475012545202439;-0.3018;0.0883;-0.2105;
475012565210070;-0.0073;-0.0119;-0.0223;
475012585215193;0.1753;-0.1536;0.1725;
475012605222428;0.1496;-0.1322;0.0778;
475012625223180;-0.3219;0.0578;-0.1347;
475012645222902;-0.2150;-0.0510;-0.0340;
475012665222725;0.2052;-0.2031;0.1792;
475012685221828;0.2156;-0.0449;-0.0663;
475012705222803;-0.2419;0.0437;-0.0902;
475012725540790;-0.0758;-0.1359;0.1792;
475012745385688;0.1472;-0.0748;0.0400;
475012765270656;0.0513;0.0724;-0.1928;
475012785200217;-0.3849;0.0321;0.0241;
475012805200536;0.0446;-0.1591;0.1444;
475012825202445;0.1924;-0.0870;0.0839;
475012845203034;0.1197;0.0675;-0.1873;
475012865199329;-0.1546;-0.0418;0.1163;
475012885212246;-0.1210;-0.1053;0.0106;
475012905226916;0.0214;0.0339;-0.0773;
475012925233058;0.1454;-0.0693;-0.0065;
475012945231014;-0.0361;0.0236;0.0070;
475012965231377;-0.1857;-0.0950;0.0925;
475012985226962;0.1429;0.0321;-0.0193;
475013005227216;0.1179;0.0284;-0.1054;
475013025229535;-0.0855;-0.0070;0.1157;
475013045228906;-0.1735;0.0065;-0.0071;
475013065229015;0.1869;-0.0901;0.0387;
475013085244339;0.1008;0.0071;0.0387;
475013105243520;-0.1020;0.0089;-0.1054;
475013125236937;-0.1515;0.0187;0.0766;
475013145241569;0.1380;-0.1078;0.0045;
475013165234000;0.0507;-0.0461;0.0894;
475013185241485;-0.3036;0.0346;-0.0847;
475013205201093;0.1295;-0.0198;0.0858;
475013225214262;0.1668;-0.0565;0.0326;
475013245219904;-0.1882;0.0083;0.0137;
475013265224514;-0.1888;0.0999;-0.0877;
475013285232377;0.0702;0.0101;-0.0156;
475013305230846;0.2449;-0.0180;0.1096;
475013325227427;-0.2877;0.0565;-0.1439;
475013345234141;-0.0984;0.0529;0.0235;
475013365238325;0.2168;-0.0345;0.0070;
475013385244167;0.0880;0.0058;0.0076;
475013405239530;-0.0910;0.0303;-0.0211;
475013425228827;-0.2346;0.0810;-0.0694;
475013445227148;0.2162;0.0321;0.1035;
475013465227617;-0.0892;0.0278;-0.0321;
475013485226466;-0.1063;0.0620;0.0271;
475013505231833;0.0006;0.0382;-0.0217;
475013525190555;0.0788;0.0859;0.0027;
475013545204935;-0.0397;0.0590;-0.0511;
475013565212702;-0.0965;0.0853;-0.0199;
475013585223855;-0.0605;-0.0424;0.1285;
475013605220470;0.0635;-0.0100;0.0204;
475013625220681;0.0336;0.1164;-0.0651;
475013645217941;0.0336;0.0077;0.0326;
475013665219186;-0.0428;-0.0345;0.1395;
475013685217770;-0.0086;0.0529;-0.0474;
475013705224947;0.0397;0.0657;0.0174;
475013730376612;-0.0043;0.0107;0.0821;
475013765148508;-0.0116;0.0529;-0.0413;
475013785149470;-0.0055;0.1298;0.0058;
475013805149008;0.0837;0.0327;0.0595;
475013825125508;-0.0031;0.0223;0.1108;
475013845182970;-0.0587;0.0584;0.0058;
475013865171355;-0.0299;0.0804;-0.0254;
475013885169316;0.0788;0.0694;0.0387;
475013905174162;-0.0947;0.0297;0.0332;
475013925218239;0.0037;0.0645;0.0100;
475013945224854;-0.0403;0.0364;0.0180;
475013965242278;-0.0715;0.0657;-0.0260;
475013985224931;0.0513;0.0846;0.0167;
475014005171085;-0.0012;0.0663;-0.0101;
475014025257662;0.0085;0.0492;0.0027;
475014045232201;-0.0214;0.1201;-0.0376;
475014065224931;-0.1045;0.0798;-0.0370;
475014085223047;0.0495;0.0480;0.0491;
475014105225162;0.0641;0.1182;-0.0755;
475014125231624;-0.0483;0.0755;-0.0205;
475014145241277;-0.1026;0.0822;0.0235;
475014165224277;0.0293;0.0749;-0.0669;
475014185225854;0.1026;0.0895;0.0540;
475014205227277;-0.0745;0.1054;0.0015;
475014225231816;0.0104;0.0950;0.0235;
475014245158393;0.0562;0.1286;-0.0040;
475014265234008;0.0104;0.0810;0.0076;
475014285227854;-0.0477;0.1134;0.0302;
475014305230316;-0.1179;0.1451;-0.0932;
475014325239354;0.0776;0.1256;0.0675;
475014345241239;0.1313;0.0449;0.0149;
475014365227162;-0.0385;0.1305;0.0394;
475014385225431;-0.0513;0.0773;-0.0132;
475014405241431;0.1179;0.1384;0.0430;
475014425253085;0.0318;0.1060;-0.0095;
475014445176123;0.0043;0.0865;0.0699;
475014465229200;-0.0214;0.1531;0.0277;
475014485229200;0.0287;0.0877;0.0363;
475014505227239;-0.0739;0.0993;0.0571;
475014525243162;-0.0373;0.0950;0.0351;
475014545154508;0.0318;0.1231;0.0436;
475014565216354;0.0256;0.1091;-0.0016;
475014585215854;-0.1399;0.0834;0.1035;
475014605219585;-0.0086;0.0877;0.0497;
475014625236854;0.0568;0.1335;0.0216;
475014645171623;-0.0513;0.0681;0.0907;
475014665151162;-0.0849;0.0718;0.0809;
475014685218431;0.0275;0.1250;0.0351;
475014705221508;0.0299;0.1042;-0.0168;
475014725217892;-0.0837;0.0853;0.0901;
475014745728162;-0.0006;0.0761;-0.0113;
475014765143162;0.1142;0.1360;0.0222;
475014785146931;0.0201;0.0761;0.0058;
475014805167777;-0.0916;0.0352;0.1383;
475014825177392;0.0757;0.0358;0.0589;
475014845242277;0.2065;0.1311;-0.0388;
475014865130585;0.0024;0.1207;-0.0016;
475014885177738;-0.0690;0.1256;0.0351;
475014905176892;0.1258;0.1311;0.0235;
475014925178700;-0.0031;0.0871;0.0277;
475014945174008;0.0342;0.1201;0.0284;
475014965226661;0.0476;0.1085;0.0736;
475014985223584;0.1026;0.0431;-0.0046;
475015005222623;0.0024;0.0975;0.0754;
475015025223161;-0.0385;0.1005;-0.0523;
475015045238546;0.0507;0.1054;0.0571;
475015065239123;0.0318;0.0657;0.0222;
475015085221161;-0.0861;0.1421;-0.0065;
475015105222046;0.0092;0.1757;-0.0578;
475015125221315;0.0287;0.0822;0.0442;
475015145219931;0.0092;0.0303;0.1536;
475015165227854;-0.0397;0.1390;-0.0798;
475015185226815;0.0037;0.2258;-0.0559;
475015205224700;0.0568;0.0028;0.1023;
475015225224277;-0.0470;0.0730;0.0595;
475015245251392;-0.0385;0.2056;-0.1195;
475015265238661;0.0794;0.2337;-0.1066;
475015285230430;-0.0525;-0.0003;0.0546;
475015305144738;-0.0843;0.1079;0.1237;
475015325207123;-0.0324;0.2233;-0.1873;
475015345206661;0.0690;0.1396;0.0302;
475015365175469;0.0281;0.0486;0.1206;
475015385224084;-0.0055;0.1250;0.0216;
475015405224430;-0.0678;0.2343;-0.1109;
475015425220507;0.1148;0.1873;-0.0413;
475015445262353;0.0440;0.0144;0.0815;
475015465239815;-0.1020;0.1329;-0.0297;
475015485222161;0.0849;0.2349;-0.0822;
475015505215392;0.0800;0.1262;0.0510;
475015525217161;-0.0483;0.0627;0.1200;
475015545152699;-0.0874;0.1170;0.0192;
475015565220738;0.0617;0.2258;-0.0077;
475015585231738;-0.0037;0.1445;-0.0266;
475015605227546;-0.0971;0.0675;0.1408;
475015625219276;-0.0220;0.0828;0.0339;
475015645227007;0.0916;0.1873;-0.0394;
475015665157892;0.0708;0.1054;-0.0052;
475015685142853;-0.1717;0.0743;0.1163;
475015705221699;0.1631;0.1775;-0.0333;
475015725148545;0.0354;0.2001;-0.0407;
475015745142161;-0.1130;0.1243;0.0308;
475015765154392;0.0012;0.1054;0.0620;
475015785144815;0.1533;0.1469;-0.0181;
475015806258161;0.0275;0.1433;0.0418;
475015825148045;-0.0507;0.0828;0.0119;
475015845184161;0.0373;0.1231;0.0534;
475015865192122;0.1747;0.0816;0.0167;
475015885127392;-0.0489;0.1146;-0.0089;
475015905173661;-0.0617;0.1427;0.0015;
475015925171122;-0.0177;0.1176;0.0009;
475015945171084;0.1741;0.1543;-0.0138;
475015965170315;-0.0666;0.1195;0.0931;
475015985180276;-0.1436;0.1085;0.0113;
475016005170507;0.0470;0.1482;-0.0138;
475016025159161;0.1625;0.1243;0.0271;
475016045226661;-0.0416;0.0510;0.1127;
475016065169853;-0.1246;0.1396;-0.0150;
475016085228045;0.0043;0.1616;-0.0156;
475016105227199;0.1246;0.0822;0.0901;
475016125225661;-0.0367;0.1176;0.0155;
475016145227353;-0.2285;0.1922;-0.0260;
475016165233968;0.0586;0.1879;0.0076;
475016185170622;0.1509;0.1011;0.1114;
475016205232776;-0.0684;0.0920;-0.0181;
475016225208968;-0.0776;0.1702;-0.0101;
475016245207430;0.2126;0.0938;0.0045;
475016265191084;0.0568;0.0981;0.1047;
475016285215507;-0.2340;0.1586;-0.0602;
475016305140776;-0.1295;0.2148;-0.0175;
475016325127622;0.1099;0.1048;0.0155;
475016345187083;-0.0037;0.0895;0.0943;
475016365178276;-0.2767;0.1909;-0.0364;
475016385194583;-0.0678;0.1830;-0.0559;
475016405186237;0.2187;0.0492;0.1151;
475016425183545;-0.0293;0.0944;-0.0321;
475016445186276;-0.2242;0.2190;-0.0932;
475016465195583;0.1991;0.1488;0.0186;
475016485173891;0.1270;0.0547;0.0656;
475016505181545;-0.2205;0.1549;0.0051;
475016525176045;-0.1613;0.1805;-0.0810;
475016545199622;0.1845;0.1555;-0.0065;
475016565185083;0.1283;0.0755;0.0247;
475016585186699;-0.2535;0.1750;-0.0376;
475016605185045;-0.1833;0.1317;-0.0358;
475016625182122;0.1124;0.0639;0.1169;
475016645186391;0.1313;0.0553;0.0100;
475016665180660;-0.1466;0.1494;-0.0333;
475016685178314;-0.0617;0.1531;-0.0584;
475016705167737;0.1619;0.0791;0.0778;
475016725199737;-0.0568;0.0993;-0.0181;
475016745499352;-0.1277;0.1750;-0.0480;
475016765182545;-0.1540;0.0535;0.0894;
475016785174237;0.1692;0.0584;0.0687;
475016805127852;0.0580;0.0956;-0.0547;
475016825129391;-0.0745;0.1024;0.0351;
475016845141775;-0.0672;0.0437;0.0351;
475016865175506;0.2523;0.1201;0.0045;
475016885181468;0.0519;0.1335;-0.0602;
475016905190814;-0.1442;0.0822;0.0870;
475016925172814;-0.0507;0.1066;-0.0010;
475016945172545;0.1026;0.1604;-0.0834;
475016965175891;-0.0709;0.0095;0.0723;
475016985188045;-0.0794;0.0962;-0.0694;
475017005198545;0.1246;0.1378;-0.0346;
475017025180929;0.1423;0.0254;0.1151;
475017045175968;0.0452;0.1060;-0.0297;
475017065179314;-0.0929;0.1897;-0.0877;
475017085182083;-0.0000;0.1744;-0.0712;
475017105189891;0.0721;0.0559;0.0998;
475017125180006;-0.0128;0.0932;0.0204;
475017145175660;-0.0941;0.2135;-0.1140;
475017165189660;-0.0067;0.1256;0.0198;
475017185203968;0.1051;0.0724;0.0552;
475017205217352;-0.0391;0.2019;-0.0266;
475017225127044;-0.0587;0.1696;-0.0847;
475017245173352;-0.0715;0.1378;0.0601;
475017265170967;-0.1204;0.1219;-0.0156;
475017285234198;0.0434;0.1964;-0.0938;
475017305228660;-0.0006;0.1347;-0.0077;
475017325231929;-0.0550;0.0633;0.0864;
475017345230852;-0.0422;0.1225;-0.0278;
475017365228390;0.1069;0.1372;-0.0156;
475017385227429;-0.0257;0.1500;-0.0327;
475017405229083;-0.1564;0.1341;-0.0303;
475017425235083;-0.0947;0.1164;0.0406;
475017445231737;0.1588;0.1219;-0.0004;
475017465239813;-0.0721;0.1341;-0.0236;
475017485250621;-0.1460;0.1421;-0.0388;
475017505228698;0.0421;0.0828;0.0161;
475017525227352;0.1716;0.1030;-0.0052;
475017545222236;-0.0416;0.1415;-0.0291;
475017565230429;-0.1766;0.1219;0.0106;
475017585225660;0.0501;0.1677;-0.0248;
475017605220352;0.1594;0.1647;-0.0462;
475017625226660;-0.0067;0.1292;0.0656;
475017645224159;-0.1081;0.1042;0.0558;
475017665223698;0.0647;0.1763;-0.0236;
475017685224813;0.0318;0.1683;-0.0559;
475017705241583;-0.0654;0.0901;0.0332;
475017725143544;0.0470;0.1915;-0.0370;
475017747643198;0.0831;0.1598;0.0033;
475017765951275;0.0018;0.1097;0.0968;
475017785150006;0.0159;0.0932;0.0558;
475017805255967;-0.0055;0.2025;-0.0419;
475017825144890;0.1124;0.1408;-0.1060;
475017845147467;-0.0361;0.0920;0.1316;
475017865172852;0.0049;0.0859;-0.0205;
475017885205505;0.0391;0.1537;-0.0059;
475017905252582;-0.0281;0.1188;-0.0492;
475017925223736;-0.0727;0.0999;0.0351;
475017945215775;0.0318;0.1579;-0.0242;
475017965216467;-0.0312;0.1714;0.0003;
475017985226198;-0.1081;0.1115;0.0259;
475018005223698;-0.0495;0.1305;0.0302;
475018025233967;0.0861;0.1109;-0.0529;
475018045226159;0.0085;0.1286;0.0375;
475018065226313;-0.0892;0.1378;-0.0462;
475018085220928;-0.0238;0.1421;0.0119;
475018105259505;0.0696;0.0969;-0.0168;
475018125223275;-0.0642;0.1781;-0.0193;
475018145216351;-0.0544;0.1592;-0.0340;
475018165217659;0.0818;0.1182;0.0882;
475018185304736;-0.0025;0.1121;-0.0162;
475018205226082;-0.0843;0.1799;-0.0486;
475018225226928;-0.0073;0.1720;-0.0266;
475018245308928;0.1692;0.1335;0.0064;
475018265203236;-0.0654;0.1659;0.0363;
475018285199621;-0.1478;0.1134;0.0064;
475018305234736;0.0464;0.1537;0.0894;
475018325143582;0.1619;0.1757;-0.1225;
475018345196313;-0.0391;0.1500;0.0351;
475018365190197;-0.0941;0.0681;0.0540;
475018385132197;-0.0000;0.1127;0.0742;
475018405169890;0.2712;0.0926;-0.0321;
475018425173236;-0.1448;0.1360;0.0473;
475018445227082;-0.0849;0.1873;-0.1109;
475018465222505;0.1215;0.1256;0.0558;
475018485223351;0.1002;0.0883;0.0467;
475018505246505;-0.1625;0.0675;0.0534;
475018525143928;-0.2492;0.1421;-0.0272;
475018545334120;0.1496;0.1573;-0.0724;
475018565218697;0.1881;0.1390;0.0485;
475018585232082;-0.3122;0.0853;0.0613;
475018605227466;-0.0507;0.0291;0.1353;
475018625228197;0.2486;0.2086;-0.0944;
475018645222813;0.1222;0.2294;-0.1329;
475018665222120;-0.3311;0.1396;0.0742;
475018685227197;-0.1943;0.0956;0.0552;
475018706947928;0.3024;0.1201;-0.0211;
475018726184274;-0.2627;0.0449;0.0687;
475018746179697;-0.2211;0.1641;0.0094;
475018767209697;0.2034;0.2563;-0.2044;
475018785211043;0.2046;0.0694;0.0736;
475018805197851;-0.1656;0.0712;0.0632;
475018825189620;-0.1436;0.1482;-0.0419;
475018845179582;0.1894;0.1775;-0.0627;
475018865176389;0.1955;0.1311;-0.0052;
475018885177236;-0.0635;0.1408;-0.0083;
475018905171274;-0.1454;0.1219;0.0082;
475018925126466;-0.0116;0.0510;0.1145;
475018945176620;0.2327;0.1451;-0.0480;
475018965173005;-0.0018;0.1726;-0.0113;
475018985178197;-0.2932;0.1867;-0.1195;
475019005176582;-0.1998;0.1482;0.0870;
475019025226120;0.3482;0.0639;-0.0370;
475019045151043;-0.0171;0.0749;0.0858;
475019065224120;-0.4374;0.2392;-0.1335;
475019085223043;-0.0978;0.1726;-0.0865;
475019105228620;0.4062;0.0504;0.1853;
475019125141543;0.0977;0.1176;-0.0694;
475019145165043;-0.3623;0.2239;-0.0132;
475019165233158;-0.0031;0.1836;-0.1195;
475019185218774;0.2321;0.0370;0.1371;
475019205225658;-0.1332;0.1317;-0.0346;
475019225227043;-0.1900;0.1977;-0.0376;
475019245238774;0.1393;0.1708;-0.0364;
475019265225081;0.2095;0.0822;0.1053;
475019285242966;-0.0904;0.0785;0.0748;
475019305248581;-0.2364;0.2123;-0.0938;
475019325231658;0.0977;0.1738;-0.0370;
475019345231543;0.0269;0.0370;0.1151;
475019365222120;0.0110;0.1024;0.0210;
475019385217851;-0.0703;0.2001;-0.0804;
475019405223889;0.0892;0.1476;-0.0456;
475019425223389;0.0024;0.0736;0.1145;
475019445220927;-0.0953;0.1188;-0.0187;
475019465225312;-0.0012;0.1897;-0.0394;
475019485223466;-0.0257;0.1152;-0.0162;
475019505221889;0.0079;0.0822;0.1023;
475019525233927;-0.0525;0.0773;0.0424;
475019545247312;-0.0978;0.1243;0.0003;
475019565221543;0.0232;0.1537;-0.0419;
475019585219812;0.0800;0.1030;0.0613;
475019605225350;-0.0764;0.0736;0.0754;
475019625226966;-0.1344;0.1579;-0.0309;
475019645223620;0.0965;0.1506;-0.0657;
475019665225235;0.0873;0.1054;0.0956;
475019685220158;-0.0764;0.1207;-0.0260;
475019705227389;-0.0226;0.1451;0.0204;
475019725227158;0.0385;0.0993;-0.0126;
475019745449543;-0.0727;0.1054;0.0442;
475019768734504;-0.0819;0.1305;-0.0358;
475019785148196;0.0293;0.1757;-0.0675;
475019805142196;0.0073;0.1305;0.0051;
475019825127350;-0.0251;0.0969;0.0308;
475019845127966;0.0342;0.0865;0.0620;
475019865171504;-0.0941;0.0981;0.0161;
475019885174043;0.0886;0.1598;-0.0352;
475019905173696;-0.0373;0.1011;0.0058;
475019925174889;0.0018;0.0987;0.0418;
475019945173966;0.0800;0.1512;-0.0004;
475019965223812;0.0464;0.0437;0.0473;
475019985222927;-0.0843;0.1231;0.0497;
475020005147389;0.0690;0.1347;-0.1176;
475020025225735;0.0849;0.0883;0.0998;
475020045217042;-0.0892;0.0633;-0.0144;
475020065227504;-0.0745;0.1341;0.0174;
475020085227773;0.1698;0.1042;-0.0370;
475020105221619;0.0201;0.1005;0.0558;
475020125164927;-0.0996;0.1134;0.0131;
475020145206658;-0.0635;0.1305;-0.0327;
475020165205812;0.0922;0.0651;0.0864;
475020185231581;-0.1992;0.1317;-0.0486;
475020205221427;-0.1313;0.1714;-0.0578;
475020225224273;0.0507;0.0743;0.0907;
475020245225773;0.1124;0.0773;0.0387;
475020265226119;-0.1943;0.1763;-0.0394;
475020285226350;-0.1338;0.1115;0.0009;
475020305224619;0.1136;0.1225;0.0442;
475020325242773;0.0037;0.1011;-0.0052;
475020345240388;-0.0874;0.1677;-0.0468;
475020365221004;-0.0324;0.1659;-0.0425;
475020385224273;0.0788;0.0767;0.0962;
475020405221158;0.1112;0.0865;-0.0126;
475020425222542;-0.1265;0.1512;0.0033;
475020445223696;0.0757;0.1085;0.0241;
475020465226696;0.0916;0.1048;0.0656;
475020485226234;0.0146;0.1207;0.0204;
475020505221850;-0.1057;0.1818;-0.0358;
475020525249119;0.1075;0.1543;-0.0639;
475020545218965;0.0085;0.0651;0.1579;
475020565235080;-0.0306;0.0889;-0.0120;
475020585222273;-0.0978;0.1659;-0.0401;
475020605222388;-0.0263;0.0706;0.0259;
475020625219888;0.1289;0.0920;0.0754;
475020645225080;0.0171;0.1616;-0.0755;
475020665223119;-0.1454;0.1720;-0.0737;
475020685221811;0.0489;0.0681;0.0302;
475020705221427;0.0226;0.0865;0.0351;
475020725223773;0.0525;0.1445;-0.0889;
475020746547427;-0.0660;0.1622;-0.0431;
475020766725311;0.0165;0.0730;0.0339;
475020785148119;0.0690;0.1219;-0.0016;
475020805188234;0.0501;0.1469;-0.0370;
475020825170926;-0.1509;0.1250;0.0491;
475020845169965;-0.0733;0.1323;-0.0370;
475020865188080;0.1234;0.1781;-0.0266;
475020885185426;-0.1002;0.1402;-0.0156;
475020905223657;-0.1680;0.1188;0.0308;
475020925228234;0.0067;0.1512;0.0271;
475020945254849;0.0843;0.1195;-0.0071;
475020965230311;-0.1448;0.1335;0.0345;
475020985228042;-0.1875;0.1152;0.0143;
475021005230619;0.1215;0.1280;0.0113;
475021025228849;0.1582;0.1683;-0.0504;
475021045232465;-0.3305;0.1952;-0.0346;
475021065231772;-0.0361;0.0987;0.0778;
475021085238349;0.2077;0.0492;0.0748;
475021105231388;0.0544;0.1030;-0.0205;
475021125219695;-0.2407;0.1506;0.0051;
475021145227272;0.0085;0.0932;0.0100;
475021165215734;0.2730;0.0553;0.0839;
475021185147580;-0.1607;0.1170;-0.0737;
475021205225695;-0.2285;0.1127;0.1346;
475021225225772;0.1454;0.0083;0.0088;
475021245223195;0.1845;0.1641;-0.0340;
475021265224311;-0.1747;0.1360;-0.0737;
475021285224811;-0.1185;0.0908;0.0772;
475021305223541;0.1277;0.0657;0.0076;
475021325225311;0.1246;0.1280;0.0314;
475021345229926;0.0519;0.1494;-0.0724;
475021365221118;-0.2896;0.1091;0.0717;
475021385216811;0.0794;0.1140;-0.0065;
475021405227464;0.1698;0.1415;-0.0437;
475021425228503;-0.0709;0.1341;-0.0566;
475021445229349;-0.2169;0.1524;-0.0566;
475021465232734;0.2975;0.1231;-0.0370;
475021485225272;0.0525;0.1213;0.0644;
475021505240388;-0.1845;0.0798;-0.0022;
475021525238926;-0.0416;0.0901;0.0846;
475021545145772;0.1472;0.1298;-0.0902;
475021565151272;-0.0141;0.2007;-0.0590;
475021585229580;-0.0727;0.1158;-0.0016;
475021605216195;-0.0525;0.0633;0.0583;
475021625218734;0.0806;0.0663;0.0369;
475021645217695;0.0275;0.1060;-0.0199;
475021665224541;0.0672;0.1311;-0.0352;
475021685225964;-0.1313;0.1329;-0.0059;
475021705222272;-0.0434;0.1683;-0.0242;
475021725226426;0.1124;0.1115;0.0082;
475021754382887;-0.0244;0.0865;0.0485;
475021785164733;0.0030;0.1677;-0.0168;
475021805194272;0.1112;0.1488;-0.0010;
475021825236503;0.0287;0.1030;0.0846;
475021845172887;-0.1100;0.1311;-0.0175;
475021865171926;0.0250;0.2184;-0.0419;
475021885170272;-0.0049;0.1250;0.0088;
475021905168656;-0.0703;0.0883;0.1139;
475021925170464;-0.0605;0.1188;-0.0168;
475021945240541;0.0476;0.0993;0.0125;
475021965147849;0.0537;0.1390;0.0613;
475021985150464;-0.0122;0.1188;-0.0724;
475022005229618;0.0666;0.1769;0.0265;
475022025229387;-0.0550;0.1207;0.0045;
475022045232387;-0.0745;0.0779;0.0815;
475022065202156;0.0201;0.1195;0.0253;
475022085205079;0.0201;0.1024;-0.0608;
475022105205849;-0.0196;0.1543;0.0980;
475022125232426;0.0226;0.1085;-0.0792;
475022145235272;-0.0489;0.1323;0.1029;
475022165233002;-0.0556;0.1390;-0.0798;
475022185218079;0.0489;0.0779;0.1004;
475022205232772;0.0330;0.0908;-0.0346;
475022225233733;-0.1039;0.1329;0.0076;
475022245208695;-0.0342;0.1714;-0.0504;
475022265225233;0.0886;0.1048;-0.0291;
475022285147118;-0.0189;0.1427;0.0711;
475022305222810;-0.0220;0.1158;-0.0504;
475022325232579;-0.0721;0.1610;0.0497;
475022345250195;0.0531;0.1280;-0.0969;
475022365155502;-0.0544;0.1561;0.0339;
475022385216310;-0.0788;0.1298;-0.0834;
475022405215733;-0.0257;0.1439;-0.0046;
475022425218348;0.0183;0.1341;-0.0052;
475022445222041;0.0922;0.0981;0.0436;
475022465223810;-0.0171;0.1531;-0.0278;
475022485225964;-0.0672;0.1702;-0.0871;
475022505223387;0.0831;0.1421;0.0009;
475022525218541;0.0525;0.0602;0.0394;
475022545217310;-0.0978;0.1274;0.0082;
475022565303502;-0.0269;0.1537;-0.0541;
475022585219194;0.1515;0.1457;0.0180;
475022605229041;0.0592;0.1158;0.0326;
475022625150887;-0.1234;0.1860;-0.0242;
475022645216733;-0.0727;0.1714;-0.0205;
475022665223117;0.1356;0.0846;0.0766;
475022685223425;-0.0428;0.1781;-0.0223;
475022705226271;-0.1326;0.1983;-0.0480;
475022725145040;0.0965;0.0969;0.0827;
475022745648387;0.0324;0.0950;0.0907;
475022765984002;-0.2022;0.1885;-0.0645;
475022797025194;0.0641;0.1072;0.0632;
475022825186502;0.0128;0.0718;0.0082;
475022845195925;-0.0984;0.1781;-0.0278;
475022865176925;-0.0257;0.0877;0.0113;
475022885173348;-0.0446;0.1134;0.0186;
475022905177156;-0.0715;0.1628;-0.0340;
475022925177271;-0.0367;0.1097;-0.0468;
475022945177425;0.0507;0.0932;0.0968;
475022965124386;0.0165;0.1140;-0.0113;
475022985210233;-0.0519;0.1543;0.0045;
475023005204194;0.0800;0.1433;-0.0572;
475023025216771;-0.0452;0.1873;0.0406;
475023045140617;0.0195;0.1182;0.0039;
475023065218271;0.0171;0.1408;0.0332;
475023085221848;0.0208;0.1298;-0.0242;
475023105223925;-0.0409;0.1421;0.0076;
475023125226232;0.0134;0.1182;-0.0107;
475023145220540;-0.0599;0.1164;0.0540;
475023165222540;0.1246;0.0920;0.0033;
475023185233117;-0.0519;0.1561;0.0326;
475023205229271;0.0360;0.1280;-0.0541;
475023225235656;0.0666;0.1097;0.0583;
475023245234040;-0.1167;0.0920;0.0589;
475023265232117;-0.0177;0.0956;0.0161;
475023285232540;0.0672;0.1463;-0.0272;
475023305224771;-0.0507;0.1897;-0.0627;
475023325226848;-0.0813;0.1665;0.0186;
475023345227925;0.0825;0.0871;0.0717;
475023365230040;0.1350;0.1427;0.0271;
475023385221771;-0.1381;0.1360;0.0064;
475023405219117;-0.1387;0.1243;-0.0175;
475023425220040;0.1857;0.1598;0.0051;
475023445224386;-0.1063;0.1622;-0.0559;
475023465224040;-0.1564;0.0822;0.0791;
475023485220848;0.1631;0.0449;0.0595;
475023505222425;0.1154;0.1439;-0.0419;
475023525226463;-0.1179;0.1867;-0.0743;
475023545230155;-0.1368;0.0767;0.1053;
475023565253540;0.1723;0.0895;0.0387;
475023585150271;-0.1381;0.1763;-0.0651;
475023605214424;-0.1686;0.1268;-0.0065;
475023625232694;0.0061;0.1757;-0.0449;
475023645220963;0.0006;0.1683;0.0027;
475023665220271;0.0012;0.0999;0.0216;
475023685223771;-0.0715;0.0901;0.1029;
475023705219886;-0.0128;0.2013;-0.1488;
475023725233271;-0.1533;0.2300;-0.0584;
475023745359924;0.0311;0.0761;0.0656;
475023765149809;0.0427;0.0914;0.0766;
475023785624847;-0.0574;0.2111;-0.1152;
475023805144232;-0.0837;0.1494;-0.0101;
475023826630847;0.0281;0.0712;0.1004;
475023846211655;0.1264;0.1127;-0.0113;
475023865186040;-0.0434;0.1647;-0.0144;
475023885187886;-0.0263;0.1317;0.0167;
475023905193424;0.1264;0.0804;0.0919;
475023925230193;-0.0171;0.1757;-0.0773;
475023945228886;-0.1649;0.1897;-0.0150;
475023965227001;0.0189;0.0761;0.0693;
475023985232193;0.1307;0.1103;0.0736;
475024005214078;-0.0397;0.1482;-0.0419;
475024025218155;-0.0861;0.1616;-0.0095;
475024045223770;0.0385;0.1182;0.0546;
475024065220578;0.0928;0.0840;0.0442;
475024085219232;-0.0043;0.0981;0.0418;
475024105228193;-0.0257;0.1127;0.0106;
475024125231693;0.0140;0.1408;-0.0132;
475024145174001;0.0250;0.1384;0.0003;
475024165226116;0.0354;0.0535;0.1010;
475024185226116;-0.0214;0.1195;0.0015;
475024205149539;-0.1039;0.1848;-0.0511;
475024225217770;0.1295;0.1054;0.0180;
475024245155116;-0.0599;0.0785;0.0675;
475024265228693;-0.1332;0.1164;-0.0046;
475024285221001;0.0733;0.1469;-0.0498;
475024305171193;0.0562;0.1231;0.0876;
475024325230347;-0.0183;0.0944;-0.0120;
475024345227501;-0.1649;0.1457;-0.0107;
475024365227693;0.0434;0.1317;-0.0333;
475024385225578;0.0880;0.1237;0.0448;
475024405220309;-0.0855;0.0791;-0.0120;
475024425221655;0.0556;0.1891;-0.0700;
475024445231116;-0.0293;0.1329;-0.0462;
475024465224885;-0.0043;0.0553;0.0778;
475024485221732;0.0599;0.0846;0.0552;
475024505225385;0.0672;0.1824;-0.1079;
475024525223539;-0.0409;0.1573;-0.0297;
475024545229501;-0.0196;0.0938;0.0467;
475024565157424;0.0256;0.0981;0.0589;
475024585242924;-0.0416;0.1573;-0.0669;
475024605218885;-0.0843;0.1653;0.0125;
475024625218808;0.0159;0.1262;0.0125;
475024645220693;-0.0324;0.1396;-0.0016;
475024665217501;-0.1051;0.1152;-0.0162;
475024685225654;0.0861;0.1433;0.0461;
475024705219847;0.1460;0.1036;0.0192;
475024725229578;-0.0269;0.1207;0.0339;
475024754683039;-0.0550;0.1769;-0.0138;
475024785168270;0.0647;0.0749;0.0766;
475024805126924;-0.0953;0.1030;0.0039;
475024825188962;-0.0525;0.2111;-0.0853;
475024845174077;0.0397;0.1469;-0.0223;
475024865193154;-0.0006;0.0804;0.1359;
475024885221385;-0.1014;0.0981;0.0119;
475024905216654;0.0293;0.1567;-0.0559;
475024925234885;0.0073;0.1170;0.0180;
475024945219308;-0.0953;0.1146;0.0253;
475024965220193;-0.0391;0.1702;-0.0639;
475024985238847;0.0440;0.1415;0.0051;
475025005219347;-0.0342;0.1219;0.0119;
475025025143885;0.0128;0.1030;0.0094;
475025045218193;0.0098;0.1317;0.0100;
475025065221577;0.0421;0.1305;-0.0248;
475025085223193;0.0085;0.1103;0.0546;
475025105222923;0.0183;0.1072;-0.0101;
475025125220116;0.0391;0.1610;-0.0022;
475025145225962;-0.0012;0.1567;-0.0449;
475025165246577;-0.0293;0.1494;-0.0004;
475025185236039;-0.0690;0.1360;0.0271;
475025205144116;0.0342;0.0920;0.0558;
475025225217308;0.0110;0.2056;-0.0602;
475025245228731;-0.0880;0.1653;-0.0211;
475025265227000;-0.0684;0.1298;0.0644;
475025285241116;0.0037;0.1146;0.0235;
475025305240154;0.0867;0.1561;-0.0095;
475025325223731;-0.0452;0.1353;0.0320;
475025345229500;-0.0049;0.1250;0.0241;
475025365238500;-0.0080;0.1579;-0.0449;
475025385227346;0.0947;0.1219;0.0601;
475025405165808;0.0061;0.1372;0.0027;
475025425223192;-0.0135;0.1714;-0.0046;
475025445228808;0.0201;0.1775;-0.0413;
475025465233769;-0.0629;0.1237;0.0876;
475025485243654;-0.0067;0.0962;0.0668;
475025505240808;0.1118;0.1488;0.0119;
475025525223731;-0.0495;0.2166;-0.0584;
475025545224577;-0.1949;0.2312;-0.0963;
475025565238308;0.0116;0.1176;0.1078;
475025585195962;0.1942;0.0779;0.0161;
475025605200231;-0.1332;0.2013;0.0009;
475025625198654;-0.1973;0.1714;-0.0419;
475025645218115;0.1496;0.1024;0.0430;
475025665224077;-0.0165;0.1457;-0.0541;
475025685224846;-0.2047;0.1940;-0.0077;
475025705229231;0.0794;0.0419;0.0711;
475025725219692;0.3775;0.1335;0.0675;
475025746976808;-0.0525;0.2551;-0.1415;
475025765173115;-0.2871;0.1329;0.1157;
475025785152615;-0.0251;-0.0461;0.2361;
475025805148692;0.0611;0.2080;-0.0236;
475025825145384;0.1362;0.2954;-0.2667;
475025845129038;-0.0666;0.1048;0.1163;
475025865179115;-0.1460;-0.0559;0.2715;
475025885171538;0.0708;0.1219;-0.0394;
475025905174807;0.0049;0.2019;-0.0150;
475025925182154;-0.1503;0.1097;-0.0517;
475025945231269;0.0269;0.2722;-0.0272;
475025965231154;0.3696;0.0113;-0.1384;
475025985244269;-0.1588;0.0346;0.3472;
475026005245192;-0.3073;0.2514;-0.1702;
475026025230230;0.2816;0.2453;-0.1677;
475026045218000;0.1405;0.1268;0.1371;
475026065221692;-0.2358;0.1237;-0.0847;
475026085226230;-0.3158;0.2361;0.0369;
475026105240384;0.2437;0.0688;-0.0388;
475026125236730;0.0843;0.1500;0.0876;
475026145226192;-0.2114;0.1170;-0.0217;
475026165241038;0.0782;0.0651;0.0668;
475026185223730;0.3335;0.0865;0.0418;
475026205237230;-0.1014;0.1341;0.0039;
475026225215884;-0.1845;0.1653;-0.0645;
475026245223461;0.1515;0.1072;0.0558;
475026265229269;0.1130;0.0755;0.0253;
475026285231653;-0.1350;0.1408;0.0094;
475026305235115;-0.1277;0.1292;-0.0211;
475026325232923;0.1771;0.1054;0.0222;
475026345230038;0.1527;0.0846;0.0167;
475026365229346;-0.1766;0.1127;0.0149;
475026385226922;-0.0782;0.1103;-0.0028;
475026405255499;0.1185;0.1341;-0.0333;
475026425230384;-0.0580;0.1292;-0.0028;
475026445216961;-0.0910;0.1115;-0.0089;
475026465227115;0.0134;0.1366;-0.0859;
475026485224999;0.0666;0.1085;-0.0346;
475026505221615;-0.0690;0.0743;0.0675;
475026525225153;0.0092;0.0999;-0.0584;
475026545223884;0.0495;0.2080;-0.0755;
475026565264922;-0.0330;0.1329;-0.0394;
475026585223422;-0.1008;0.0920;0.0791;
475026605223345;-0.0458;0.1103;-0.0333;
475026625215384;0.0397;0.1170;-0.0168;
475026645150961;-0.0092;0.1030;-0.0168;
475026665219922;-0.1460;0.1286;-0.0388;
475026685223845;-0.0128;0.0908;0.0284;
475026705225576;0.1594;0.0565;0.0290;
475026725230730;-0.0440;0.0883;0.0167;
475026755527268;-0.0654;0.1518;-0.0694;
475026785183576;0.1429;0.0529;0.0296;
475026805142961;-0.0629;0.1353;0.0277;
475026825184268;-0.1063;0.0834;-0.0187;
475026845187730;0.0238;0.1390;0.0051;
475026865176922;0.1191;0.0645;-0.0181;
475026885181614;-0.1521;0.0920;0.0259;
475026905184153;-0.0006;0.1091;-0.0046;
475026925207191;0.1142;0.0730;0.0143;
475026945222768;0.0122;0.0761;0.0094;
475026965221884;-0.1417;0.0785;0.0051;
475026985221653;-0.0519;0.0865;-0.0107;
475027005221768;0.1240;0.0492;0.0314;
475027025254691;0.0116;0.0449;-0.0156;
475027045225884;-0.1216;0.0926;0.0009;
475027065223076;-0.0409;0.0730;-0.0621;
475027085223537;0.0800;0.1011;0.0113;
475027105223845;0.0079;0.0492;-0.0028;
475027125223114;-0.1039;0.0712;0.0192;
475027145223037;-0.0819;0.0498;-0.0120;
475027165222614;0.0177;0.0529;-0.0596;
475027185232076;-0.0782;0.0694;0.0485;
475027205218768;-0.1265;0.0486;-0.0278;
475027225237806;0.0495;0.0602;0.0210;
475027245149730;0.1454;0.0144;0.0119;
475027265218230;-0.2010;0.0346;0.0339;
475027285227960;-0.1167;0.0999;-0.0889;
475027305226306;0.0959;0.0547;0.0051;
475027325150268;0.1124;-0.0064;0.0650;
475027345224922;-0.1863;0.0547;-0.0688;
475027365221076;-0.1246;0.1048;-0.0682;
475027385222345;0.0739;0.0223;0.0259;
475027405222883;-0.0006;0.0590;-0.0572;
475027425262499;-0.0935;0.0559;-0.0187;
475027445242845;0.0208;-0.0186;0.0479;
475027465237499;0.0831;0.0260;-0.0456;
475027485216768;-0.0483;0.0553;-0.0333;
475027505216691;-0.1509;0.0181;-0.0150;
475027525227383;-0.0055;0.0339;-0.0095;
475027545228075;0.1057;0.0119;-0.0779;
475027565259845;-0.1295;0.0462;0.0473;
475027585215999;-0.0464;0.0236;-0.0810;
475027605215960;0.0495;0.0407;0.0650;
475027625216152;-0.0128;0.0119;-0.0767;
475027645238691;-0.0385;0.0455;-0.0059;
475027665218075;0.0434;0.0150;-0.0059;
475027685223345;-0.0605;0.0364;-0.0388;
475027705220037;-0.0544;0.0688;-0.0352;
475027725238383;0.0818;-0.0192;-0.0101;
475027745166114;-0.0012;-0.0180;-0.0004;
475027765344498;-0.0654;0.0474;-0.0712;
475027785278191;0.0391;0.0382;-0.0162;
475027805140498;0.0794;-0.0461;0.0729;
475027825146460;-0.0055;0.0181;-0.0370;
475027845139229;-0.1161;0.0798;-0.0162;
475027865172075;0.0440;0.0266;-0.0394;
475027885169152;0.0281;0.0003;-0.0016;
475027905170691;-0.1656;0.0034;0.0045;
475027925170229;0.0146;0.0083;-0.0199;
475027945221652;0.1203;0.0168;-0.0138;
475027965229498;-0.0825;-0.0430;0.0167;
475027985226075;-0.1185;0.0095;-0.0376;
475028005230652;-0.0031;-0.0094;-0.0083;
475028025220806;0.1729;-0.0253;0.0161;
475028045230075;-0.1283;0.0046;0.0009;
475028065224460;-0.0794;-0.0302;-0.0278;
475028085217806;0.0324;-0.0107;0.0064;
475028105235037;0.1826;0.0065;-0.0608;
475028125220460;-0.0232;0.0229;-0.0052;
475028145219344;-0.0183;-0.0443;0.0070;
475028165224152;0.0226;0.0205;-0.0242;
475028185224921;-0.1087;0.0431;-0.0785;
475028205232152;-0.0550;-0.0119;0.0070;
475028225229806;-0.0403;-0.0241;0.0302;
475028245231498;0.1435;0.0627;-0.1305;
475028265232229;0.0446;0.0162;-0.0272;
475028285219460;-0.0739;-0.0675;0.1114;
475028305220229;-0.0660;-0.0461;-0.0370;
475028325220306;0.1814;0.0596;-0.0639;
475028345224613;0.0482;0.0193;-0.0199;
475028365224652;-0.0715;-0.0424;0.0064;
475028385222113;-0.0880;0.0132;-0.0462;
475028405222806;0.0140;0.0022;-0.0425;
475028425218075;-0.0409;-0.0284;0.0497;
475028445239959;-0.1222;0.0162;-0.0773;
475028465219998;0.0293;0.0584;-0.0987;
475028485230459;0.0989;0.0333;-0.0278;
475028505223190;-0.1161;-0.0601;0.0284;
475028525225344;-0.0886;0.0138;-0.0187;
475028545225882;0.0324;0.0553;-0.1091;
475028565246152;0.0592;0.0260;0.0051;
475028585150459;-0.0794;-0.0278;0.0143;
475028605223421;-0.1246;0.0303;-0.0327;
475028625219575;-0.0104;0.0602;-0.0871;
475028645247267;0.0757;-0.0516;0.0705;
475028665219152;-0.0525;0.0058;-0.0578;
475028685217036;-0.0739;0.0969;-0.1018;
475028705220344;0.0525;-0.0021;-0.0089;
475028725216498;0.0556;-0.0516;0.0913;
475028747674882;-0.1228;-0.0070;-0.0242;
475028766327382;-0.0257;0.0462;-0.0877;
475028785145536;0.0941;-0.0333;0.0620;
475028805153690;-0.0495;-0.0320;-0.0260;
475028825128459;-0.0965;0.0645;-0.0657;
475028845175344;0.0250;0.0126;-0.0621;
475028865225728;0.0904;-0.0070;0.0375;
475028885169113;-0.0599;0.0083;-0.0541;
475028905190305;-0.0544;0.0199;-0.0266;
475028925195190;0.0971;-0.0137;-0.0040;
475028945194228;0.0330;0.0126;-0.0101;
475028965221959;-0.0800;0.0333;-0.0297;
475028985242959;-0.0006;0.0193;-0.0278;
475029005235959;-0.0214;-0.0058;-0.0168;
475029025245344;-0.0153;-0.0137;-0.0236;
475029045230728;0.0391;0.0126;-0.0370;
475029065232151;-0.0128;0.0168;-0.0352;
475029085227997;-0.0483;0.0065;-0.0291;
475029105219728;0.0427;0.0077;-0.0401;
475029125219805;-0.0868;-0.0088;0.0284;
475029145219882;0.0140;0.0101;-0.0730;
475029165232805;0.0153;0.0394;-0.0205;
475029185233459;-0.0513;0.0003;-0.0480;
475029205227536;-0.0831;-0.0259;0.0302;
475029225240459;0.0275;-0.0259;-0.0132;
475029245220920;0.0122;0.0773;-0.1262;
475029265162767;-0.0751;0.0278;-0.0480;
475029285227728;-0.0110;-0.0455;0.0314;
475029305218997;0.0684;-0.0247;-0.0120;
475029325222728;0.0177;0.0083;-0.0547;
475029345224997;-0.0367;0.0339;-0.0645;
475029365226497;0.0550;-0.0070;-0.0132;
475029385231266;0.0800;-0.0107;-0.0358;
475029405219228;-0.1533;0.0174;-0.0358;
475029425154690;-0.0428;-0.0119;0.0113;
475029445258228;0.1374;-0.0229;-0.0480;
475029465230036;0.0311;0.0327;-0.0309;
475029485242997;-0.1405;0.0425;-0.0987;
475029505226382;-0.0709;0.0083;0.0180;
475029525225689;0.2236;-0.0406;-0.0028;
475029545228382;-0.0904;0.0400;-0.0346;
475029565248805;-0.1069;0.0193;-0.0492;
475029585232189;0.0183;0.0217;-0.0046;
475029605222497;0.0629;-0.0595;0.0082;
475029625222843;-0.0758;-0.0107;0.0235;
475029645224420;0.0195;0.0144;-0.0303;
475029665253805;0.1173;-0.0076;-0.0382;
475029685244882;0.0030;0.0052;-0.0352;
475029705217843;-0.0709;-0.0070;-0.0181;
475029725146420;-0.0202;-0.0278;-0.0046;
475029749268651;0.0953;0.0278;-0.0468;
475029766527382;-0.0348;0.0303;-0.0498;
475029785552074;-0.0538;-0.0369;0.0436;
475029805155766;0.0348;-0.0271;-0.0126;
475029826178535;-0.0183;0.0126;-0.0168;
475029845179651;-0.0568;0.0010;-0.0462;
475029865175728;0.0513;0.0126;-0.0278;
475029885128151;0.0611;0.0028;0.0039;
475029905148189;-0.0538;0.0095;-0.0431;
475029925208574;-0.0135;0.0156;-0.0364;
475029945205228;0.1002;-0.0180;0.0394;
475029965223420;-0.1197;0.0010;-0.0260;
475029985222074;-0.1582;0.0242;-0.0181;
475030005222574;0.1301;-0.0058;-0.0468;
475030025222151;0.0770;-0.0381;0.0809;
475030045222497;-0.0464;-0.0296;-0.0358;
475030065224958;-0.0965;0.0468;-0.0364;
475030085225035;0.1527;-0.0375;-0.0217;
475030105220458;0.0837;-0.0094;0.0296;
475030125225727;-0.2376;-0.0064;-0.0749;
475030145223304;0.0617;-0.0052;-0.0101;
475030165228612;0.1753;-0.0009;0.0033;
475030185236420;-0.1729;-0.0149;0.0106;
475030205224958;-0.1118;-0.0009;0.0015;
475030225150304;0.1038;-0.0100;0.0100;
475030245223997;0.1967;-0.0601;0.0235;
475030265222612;-0.1069;-0.0284;0.0088;
475030285244766;-0.1485;0.0095;-0.0248;
475030305221804;0.2364;-0.0027;-0.0071;
475030325221920;0.0959;-0.0119;-0.0101;
475030345220612;-0.3048;-0.0180;0.0235;
475030365226266;-0.0959;0.0119;-0.0621;
475030385231073;0.1551;0.0303;0.0088;
475030405228497;-0.1741;-0.0687;-0.0199;
475030425240073;-0.2511;0.0156;-0.0083;
475030445241458;0.1283;0.0138;-0.1134;
475030465248996;0.1515;0.0003;0.0125;
475030485239343;-0.1216;-0.0436;-0.0462;
475030505221304;-0.1405;0.0113;-0.0199;
475030525219612;0.1222;0.0126;-0.1329;
475030545226035;0.1411;-0.0186;0.0302;
475030565243650;-0.0312;-0.0534;-0.0321;
475030585224650;-0.0874;0.0327;-0.0401;
475030605222689;0.1081;-0.0455;-0.0126;
475030625225766;0.1716;-0.0400;0.0027;
475030645223958;-0.1692;0.0144;-0.0272;
475030665234881;-0.0018;-0.0412;-0.0333;
475030685149304;0.2230;-0.0632;0.0455;
475030705153304;0.1008;-0.0876;-0.0492;
475030725228035;-0.2199;0.0003;0.0394;
475030748117958;0.0556;-0.0253;-0.1274;
475030765162035;0.1142;-0.0296;0.0583;
475030785142150;-0.0898;-0.0974;-0.0028;
475030805149189;-0.1313;-0.0577;0.0015;
475030825172612;0.0482;-0.0119;-0.0920;
475030845124189;-0.0434;-0.0113;-0.0761;
475030865170958;-0.1216;-0.1243;0.0607;
475030885235150;0.0018;-0.0137;-0.1183;
475030905155996;-0.1350;0.0003;-0.0168;
475030925236688;-0.0654;-0.1072;0.0051;
475030945219304;-0.0367;-0.0785;-0.0040;
475030965221958;-0.0037;-0.0626;-0.0584;
475030985230111;-0.0544;-0.0467;-0.0052;
475031005229419;0.0226;-0.0846;-0.0364;
475031025242073;0.0238;-0.0791;0.0558;
475031045236342;0.0342;-0.0797;-0.0468;
475031065236227;0.0024;-0.0699;-0.0083;
475031085225419;-0.0031;-0.1023;0.0247;
475031105228727;0.0287;-0.0681;-0.0352;
475031125208842;0.0501;-0.0717;-0.0449;
475031145201727;0.0318;-0.0992;0.0106;
475031165192919;0.1918;-0.1047;0.0259;
475031185150957;0.1277;-0.1188;0.0461;
475031205230957;0.1228;-0.0754;-0.0211;
475031225220034;0.1759;-0.0974;0.0290;
475031245228150;0.2077;-0.1218;0.0222;
475031265220996;-0.0147;-0.0614;-0.0529;
475031285218996;0.0617;-0.0950;-0.0181;
475031305239650;0.0965;-0.1615;0.0479;
475031325223804;0.1338;-0.0815;-0.0529;
475031345222496;-0.1515;-0.0528;-0.1073;
475031365221150;-0.1778;-0.1304;0.0467;
475031385222419;0.0037;-0.1505;0.0271;
475031405222996;-0.2315;-0.1591;0.0100;
475031425221611;-0.1546;-0.1017;-0.0364;
475031445222957;-0.0959;-0.1408;-0.0352;
475031465224880;-0.1662;-0.1536;0.0027;
475031485222919;0.0556;-0.1408;-0.0407;
475031505248496;-0.0183;-0.1951;0.0143;
475031525142842;-0.1821;-0.1512;-0.0431;
475031545217303;0.0513;-0.0650;-0.1274;
475031565217765;0.3268;-0.1731;-0.0633;
475031585223034;-0.0464;-0.1866;0.0632;
475031605215534;-0.1081;-0.1683;-0.0779;
475031625216880;-0.0018;-0.0852;-0.0346;
475031645218342;0.2498;-0.1310;0.0375;
475031665222111;-0.0703;-0.1756;-0.0028;
475031685222765;-0.1466;-0.0656;-0.0651;
475031705258919;0.1289;-0.0858;-0.0767;
475031725217072;0.2052;-0.2208;0.1346;
475031747581380;-0.0373;-0.1915;0.0277;
475031766656957;-0.0684;-0.0388;-0.0950;
475031785158265;0.0751;-0.0797;-0.1280;
475031805317457;0.1020;-0.1676;0.0626;
475031825125919;-0.0312;-0.1567;-0.0474;
475031845171072;-0.1753;-0.0766;-0.0908;
475031865172072;0.1399;-0.1151;-0.0981;
475031885170688;0.0287;-0.1121;-0.0981;
475031905225111;-0.1790;-0.0992;-0.0621;
475031925217457;0.0562;-0.0748;-0.1280;
475031945229188;0.1332;-0.1273;0.0760;
475031965219034;-0.0385;-0.1762;0.0760;
475031985224688;-0.2004;-0.0950;-0.0285;
475032005227765;0.1277;-0.1212;-0.0682;
475032025234534;0.3195;-0.1493;0.0131;
475032045235765;0.0159;-0.1762;0.0088;
475032065237611;-0.1637;-0.0962;-0.0394;
475032085151418;0.1124;-0.1066;-0.0608;
475032105246918;0.2339;-0.1835;0.1041;
475032125237688;-0.1949;-0.0895;-0.0492;
475032145228572;0.0342;-0.1383;0.0308;
475032165143380;0.2498;-0.1774;0.0681;
475032185226188;-0.0373;-0.0852;-0.0553;
475032205147649;-0.2297;-0.0650;-0.0590;
475032225222572;0.0006;-0.1377;0.0039;
475032245224957;0.1032;-0.1316;0.0094;
475032265247264;-0.1161;-0.1212;0.0045;
475032285225457;-0.0177;-0.1744;0.0723;
475032305229726;-0.0330;-0.1982;0.0222;
475032325158687;-0.0257;-0.0717;-0.0639;
475032345206803;-0.0312;-0.0846;-0.1066;
475032365197072;0.0311;-0.1707;0.0394;
475032385223649;-0.0782;-0.1298;0.0284;
475032405229649;-0.0208;-0.1041;-0.1066;
475032425228149;-0.0489;-0.1267;0.0772;
475032445240687;0.0672;-0.1762;-0.0199;
475032465237726;-0.1179;-0.0778;-0.0217;
475032485151341;-0.0593;-0.1127;-0.0767;
475032505236110;0.0696;-0.1505;0.0644;
475032525227803;0.0495;-0.2165;0.0131;
475032545228803;-0.1100;-0.1078;-0.0138;
475032565226803;0.0171;-0.1347;-0.0511;
475032585159380;0.0965;-0.1389;-0.0101;
475032605228803;-0.0819;-0.1542;-0.0181;
475032625219803;-0.0403;-0.1279;-0.0663;
475032645228495;0.0690;-0.1322;-0.0095;
475032665225956;-0.0275;-0.1047;-0.0468;
475032685223956;-0.0751;-0.0913;-0.0743;
475032705251918;0.0311;-0.1609;0.0540;
475032725150226;0.1161;-0.2000;0.0491;
475032745203572;-0.0092;-0.1316;-0.0315;
475032765155264;-0.0623;-0.0888;-0.0602;
475032785201303;0.0880;-0.1286;-0.0168;
475032805144687;0.0928;-0.1597;0.0571;
475032825209341;0.0085;-0.1793;-0.0052;
475032845185802;0.0342;-0.1414;-0.0004;
475032865188495;0.0421;-0.1322;-0.0248;
475032885186379;-0.0403;-0.0968;-0.0340;
475032905188726;-0.0122;-0.1603;0.0345;
475032925189418;0.0825;-0.1658;0.0461;
475032945183072;-0.0006;-0.1249;-0.0321;
475032965180495;-0.0794;-0.1194;-0.0272;
475032985184995;0.0140;-0.1340;-0.0309;
475033005131033;0.1619;-0.1188;0.0009;
475033025149802;-0.0330;-0.1854;0.0736;
475033045160956;-0.0587;-0.1542;0.0149;
475033065161918;0.0244;-0.0882;-0.0511;
475033085160418;0.0311;-0.1664;0.0540;
475033105221110;-0.0183;-0.1854;0.0308;
475033125287187;-0.0764;-0.0705;-0.0669;
475033145218571;0.0800;-0.1426;0.0418;
475033165218918;0.0318;-0.2226;0.0656;
475033185228610;-0.1460;-0.1707;0.0357;
475033205227841;0.0733;-0.0357;-0.1207;
475033225221302;0.1063;-0.1212;0.0051;
475033245146956;-0.0055;-0.2416;0.1261;
475033265220841;-0.1491;-0.1609;0.0259;
475033285225341;0.0977;-0.0809;-0.0675;
475033305218110;0.2168;-0.1182;0.0265;
475033325233456;-0.0800;-0.2330;0.0748;
475033345226571;-0.0898;-0.1414;0.0412;
475033365216533;0.1173;-0.0693;-0.0761;
475033385223571;0.0079;-0.1970;0.1145;
475033405148879;-0.1888;-0.1756;0.0558;
475033425223764;-0.0147;-0.0937;-0.0364;
475033445223187;0.1900;-0.1194;0.0033;
475033465227340;0.0183;-0.1664;0.0015;
475033485228071;-0.1649;-0.1597;0.0467;
475033505229110;-0.0196;-0.1450;-0.0504;
475033525247764;0.1631;-0.1163;-0.0199;
475033545217648;0.0617;-0.1188;-0.0132;
475033565213763;-0.1295;-0.1738;0.0430;
475033585220533;-0.0776;-0.2012;0.0620;
475033605230379;0.1057;-0.1066;-0.0517;
475033625219494;-0.0587;-0.1347;0.0180;
475033645169263;-0.1265;-0.1567;0.0577;
475033665222840;0.0293;-0.0778;-0.0645;
475033685224610;0.1240;-0.1108;-0.0126;
475033705221917;-0.0086;-0.1560;0.0711;
475033725278417;-0.1167;-0.1823;0.0571;
475033748650956;0.0293;-0.1121;-0.0627;
475033766611533;0.1362;-0.0986;-0.0602;
475033785147148;0.0214;-0.1780;0.1072;
475033805155648;-0.0855;-0.1878;0.0748;
475033826056609;0.0110;-0.0943;-0.0584;
475033845128917;0.1228;-0.1249;-0.0113;
475033865176148;-0.0281;-0.1505;0.0290;
475033885226994;-0.1069;-0.1426;0.0675;
475033905224379;0.0727;-0.1139;-0.0596;
475033925263109;-0.0238;-0.1182;0.0339;
475033945154263;-0.0800;-0.1896;0.0479;
475033965146032;-0.0037;-0.1267;-0.0138;
475033985225071;0.1075;-0.0846;-0.0675;
475034005231417;0.0049;-0.1249;-0.0071;
475034025219917;-0.0055;-0.1902;0.0620;
475034045223225;0.1136;-0.1560;0.0308;
475034065218840;0.0880;-0.1005;-0.0517;
475034085220725;0.0098;-0.1475;0.0308;
475034105220186;0.0165;-0.1805;0.0974;
475034125232571;0.0421;-0.1053;-0.0523;
475034145255263;-0.0855;-0.0980;-0.0217;
475034165149571;0.0165;-0.1988;0.0705;
475034185218225;0.1924;-0.1927;0.0760;
475034205220648;0.0605;-0.0656;-0.0853;
475034225218340;-0.1808;-0.1114;0.0076;
475034245227955;0.0409;-0.2409;0.1108;
475034265233994;0.2572;-0.1151;-0.0052;
475034285233263;-0.1112;-0.0852;-0.0730;
475034305162455;-0.1918;-0.1609;0.0742;
475034325270801;0.2211;-0.1683;0.0296;
475034345223378;0.2089;-0.1487;0.0467;
475034365224109;-0.0721;-0.1133;-0.0431;
475034385228571;-0.0306;-0.1731;0.0687;
475034405228494;0.2339;-0.1890;0.0381;
475034425226186;0.0837;-0.0974;-0.0370;
475034445238724;-0.2609;-0.1151;-0.0022;
475034465241224;-0.1032;-0.1872;0.0589;
475034485223609;0.1484;-0.1340;-0.0248;
475034505240686;0.0501;-0.1212;-0.0236;
475034525222878;-0.2382;-0.1878;0.0626;
475034545228070;-0.0868;-0.1469;0.0491;
475034565229109;0.1857;-0.1591;-0.0468;
475034585225070;0.0672;-0.1047;-0.0291;
475034605219301;-0.1081;-0.0748;-0.0517;
475034625219686;0.0269;-0.1438;0.0412;
475034645224263;0.1215;-0.1524;0.0027;
475034665226724;-0.0281;-0.1420;-0.0370;
475034685237724;-0.0910;-0.0540;0.0137;
475034705221955;0.0476;-0.2196;0.0320;
475034725738686;0.2620;-0.2385;0.1175;
475034745221840;0.0195;-0.0931;-0.0107;
475034770432455;0.0092;-0.1023;-0.0486;
475034805351763;0.2101;-0.2367;0.1585;
475034825136378;-0.1087;-0.0559;-0.1097;
475034845178032;-0.3629;-0.0901;-0.0590;
475034865179955;0.0898;-0.2006;0.1084;
475034885177493;0.3121;-0.1347;-0.0944;
475034905178301;-0.4374;0.0217;-0.1366;
475034925174378;-0.4490;-0.0785;-0.0425;
475034945180416;0.5076;-0.2086;0.0913;
475034965179224;0.2333;-0.2562;0.1157;
475034985173493;-0.4020;-0.0644;-0.0462;
475035005179032;-0.3897;0.0211;-0.1537;
475035025221724;0.3518;-0.0864;-0.0468;
475035045224801;0.5553;-0.2037;0.0455;
475035065227378;-0.2663;-0.1212;0.0235;
475035085219609;-0.4832;-0.0039;-0.1842;
475035105222647;0.2737;-0.0107;-0.1121;
475035125226070;0.1423;-0.1603;0.0155;
475035145255685;-0.4673;-0.0607;-0.0730;
475035165239839;-0.1552;-0.0259;-0.1409;
475035185231416;0.4294;-0.0778;-0.0553;
475035205218955;0.1710;-0.1615;-0.0138;
475035225221493;-0.3739;-0.0577;-0.0902;
475035245146647;-0.1069;0.0602;-0.2410;
475035265222378;0.2816;0.0425;-0.1170;
475035285225685;0.1112;-0.1157;0.0320;
475035305228916;-0.2767;-0.1017;0.1255;
475035325156955;-0.2309;-0.0852;0.0076;
475035345173147;0.3641;-0.1157;0.0387;
475035365154185;-0.1448;-0.0406;0.0137;
475035385147724;-0.3177;-0.0644;-0.1109;
475035405217262;0.1924;0.1317;-0.0602;
475035425221224;-0.2700;-0.0467;-0.1500;
475035445234954;-0.0232;-0.1310;0.2367;
475035465255647;0.0855;-0.0858;-0.0022;
475035485251185;-0.2297;0.0205;-0.0498;
475035505238685;-0.1405;0.0578;-0.1207;
475035525250647;-0.3433;-0.0669;0.1432;
475035545257301;0.7562;-0.1530;-0.0217;
475035565222224;-0.5028;0.0425;0.0369;
475035585177839;-0.4215;0.0425;-0.0975;
475035605218108;0.2529;0.0058;0.0662;
475035625222377;-0.0507;-0.0620;-0.0633;
475035645225300;-0.6255;0.0865;-0.0529;
475035665164839;0.0501;-0.0149;-0.0504;
475035685224377;0.4276;-0.1090;0.1194;
475035705217570;-0.1216;-0.0882;0.0668;
475035725221531;-0.3494;0.0736;-0.0938;
475035747582493;0.0898;0.0107;0.0155;
475035765525070;0.3793;-0.0895;0.0650;
475035785143108;0.0531;-0.0895;-0.0095;
475035805134339;-0.2755;0.0333;-0.0675;
475035825144762;0.1283;-0.0174;0.0675;
475035845122993;0.3476;-0.0559;-0.0016;
475035865172954;0.0146;0.0333;-0.0816;
475035885171916;-0.1540;0.0364;-0.0107;
475035905195262;0.1765;-0.0583;0.0723;
475035925199916;0.0928;-0.0357;0.0351;
475035945225339;-0.1155;0.0859;-0.1299;
475035965256146;0.0238;0.1097;-0.0822;
475035985239993;0.0916;0.0162;-0.0156;
475036005226454;-0.0819;-0.0155;0.0839;
475036025154146;-0.0519;-0.0045;-0.0022;
475036045228646;0.1472;0.0969;-0.0871;
475036065230339;-0.0232;0.0352;-0.0107;
475036085219723;-0.1692;-0.0278;0.0870;
475036105222569;-0.0128;0.0083;0.0064;
475036125229416;0.2712;0.0627;-0.0700;
475036145237685;-0.2291;-0.0052;0.0528;
475036165233262;-0.1368;-0.0210;0.0473;
475036185218608;0.2046;-0.0143;0.0290;
475036205216415;0.0635;-0.0064;-0.0052;
475036225215723;-0.1845;0.0633;-0.0132;
475036245221569;-0.0080;-0.0339;0.0589;
475036265223992;0.1631;-0.0473;0.0589;
475036285219031;-0.0684;0.0413;-0.0242;
475036305222300;-0.1869;0.0352;-0.0022;
475036325215185;0.0684;-0.0119;0.0534;
475036345216877;0.0861;-0.0363;0.0320;
475036365221608;-0.2535;0.0193;-0.0046;
475036385229261;0.0116;0.0144;-0.0480;
475036405220338;0.1851;-0.0009;-0.0010;
475036425214569;-0.1423;-0.0186;0.0473;
475036445225838;-0.2095;0.0193;-0.0333;
475036465235877;0.1417;0.0174;-0.0376;
475036485227761;0.1270;-0.0137;0.0284;
475036505228108;-0.1759;-0.0320;0.0051;
475036525227569;-0.0244;0.0138;-0.0016;
475036545226800;0.1613;0.0181;-0.0614;
475036565379800;0.0831;-0.0027;0.0113;
475036585148261;-0.1466;-0.0259;0.0241;
475036605214569;0.0385;-0.0076;-0.0236;
475036625221300;0.1038;0.0297;-0.0004;
475036645214915;-0.1448;-0.0186;0.0161;
475036665221800;0.0098;0.0278;0.0045;
475036685219877;0.1435;0.0138;-0.0205;
475036705223646;0.0049;0.0248;-0.0004;
475036725223646;-0.1448;0.0242;-0.0034;
475036745781877;0.0140;0.0003;0.0229;
475036765177146;0.1203;0.0126;-0.0107;
475036785153992;-0.0929;0.0217;-0.0162;
475036805147261;-0.0751;0.0095;0.0277;
475036825214069;0.0947;0.0119;-0.0401;
475036845182646;0.0055;0.0413;-0.0016;
475036865180530;-0.1222;-0.0119;0.0308;
475036885219030;0.0544;0.0022;-0.0077;
475036905225530;0.0922;-0.0009;-0.0187;
475036925228453;-0.0776;-0.0241;0.0546;
475036945236838;-0.0635;0.0052;-0.0168;
475036965242146;0.1142;0.0278;-0.0120;
475036985233569;0.0672;-0.0229;0.0210;
475037005139723;-0.1197;-0.0388;0.0772;
475037025225299;-0.0574;-0.0620;0.0412;
475037045225184;0.0989;0.0101;-0.0059;
475037065220569;0.0690;0.0119;-0.0382;
475037085226838;-0.0244;-0.0430;0.0583;
475037105220953;-0.1063;0.0016;-0.0187;
475037125219030;0.1203;-0.0180;-0.0181;
475037145221569;0.0263;-0.0540;0.0277;
475037165241915;-0.0391;-0.0479;0.0394;
475037185229992;-0.0629;-0.0216;-0.0541;
475037205244376;0.0073;0.0156;-0.0236;
475037225220338;0.0153;-0.0253;0.0003;
475037245217838;-0.0238;-0.0418;0.0632;
475037265234184;-0.0605;-0.0143;-0.0168;
475037285216799;-0.0935;0.0199;-0.0669;
475037305220645;-0.0330;-0.0174;0.0131;
475037325227222;-0.0556;-0.0406;0.0222;
475037345243376;0.0104;-0.0284;0.0009;
475037365205107;-0.0776;0.0144;-0.0394;
475037385221530;-0.0257;-0.0009;-0.0175;
475037405145953;0.0977;-0.0589;0.0546;
475037425137645;0.0635;-0.0247;0.0210;
475037445221030;-0.0550;0.0193;-0.0425;
475037465221645;-0.0629;0.0016;-0.0181;
475037485240030;0.0727;-0.0424;0.0540;
475037505246645;0.0647;-0.0546;0.0204;
475037525245415;-0.0403;0.0095;-0.0376;
475037545243107;-0.0287;-0.0168;0.0027;
475037565146799;0.0537;-0.0436;0.0277;
475037585208568;0.1093;-0.0131;-0.0028;
475037605228838;-0.0043;0.0187;-0.0181;
475037625222645;-0.0306;-0.0216;0.0143;
475037645215761;0.1002;-0.0345;0.0161;
475037665216299;0.0544;0.0199;-0.0309;
475037685215030;-0.1051;0.0022;-0.0321;
475037705214914;0.0250;-0.0137;0.0448;
475037725222261;0.0440;-0.0088;-0.0492;
475037745162299;0.0299;0.0205;-0.0028;
475037765146491;-0.0666;-0.0296;-0.0034;
475037785781260;0.0348;0.0010;-0.0059;
475037805187376;0.0611;0.0291;-0.0223;
475037825169453;-0.0868;-0.0229;-0.0303;
475037845184607;-0.0165;-0.0039;0.0125;
475037865131068;0.0391;0.0278;-0.0101;
475037885248645;-0.0868;-0.0369;-0.0040;
475037905225107;0.0128;0.0052;0.0253;
475037925223953;0.0055;0.0236;-0.0553;
475037945239145;0.0195;0.0046;0.0125;
475037965221106;-0.0458;-0.0369;0.0394;
475037985248837;-0.0385;-0.0052;0.0003;
475038005242991;-0.0220;0.0321;-0.0566;
475038025208491;0.0947;0.0022;0.0003;
475038045224530;0.0171;-0.0497;0.0467;
475038065223376;-0.0849;0.0266;-0.0199;
475038085222568;0.0403;0.0407;-0.0278;
475038105220837;0.1246;-0.0595;0.0577;
475038125153453;-0.0330;0.0022;0.0247;
475038145229376;-0.0428;0.0315;-0.0321;
475038165222953;0.1203;0.0162;0.0204;
475038185223837;0.0788;-0.0100;0.0332;
475038205156337;-0.1118;0.0174;0.0003;
475038225231529;-0.1259;0.0486;-0.0321;
475038245221068;-0.0183;0.0010;-0.0034;
475038265221606;0.0110;0.0040;0.0436;
475038285221722;-0.1014;0.0046;-0.0095;
475038305220568;-0.0672;0.0077;0.0009;
475038325221722;-0.0837;0.0181;-0.0315;
475038345222299;-0.0037;0.0058;0.0125;
475038365225799;-0.0196;-0.0155;0.0174;
475038385219183;-0.0843;0.0022;-0.0340;
475038405229568;-0.0251;0.0303;-0.0388;
475038425218760;-0.0049;0.0040;0.0058;
475038445224414;0.0098;-0.0247;0.0369;
475038465224798;-0.0367;0.0119;-0.0352;
475038485221606;-0.0580;0.0431;-0.0333;
475038505222452;0.0043;0.0162;-0.0193;
475038525227875;-0.0165;0.0034;0.0320;
475038545223106;-0.0892;-0.0265;-0.0150;
475038565230875;-0.0177;0.0559;-0.0413;
475038585258760;-0.0330;0.0321;-0.0309;
475038605146991;0.0611;-0.0485;-0.0150;
475038625230029;-0.0220;0.0010;0.0277;
475038645222221;0.0586;-0.0186;-0.0517;
475038665221952;0.1258;0.0370;0.0082;
475038685220260;0.0556;-0.0369;-0.0248;
475038705218606;-0.0587;-0.0137;0.0729;
475038725214798;0.0104;0.0095;-0.0749;
475038755857221;0.1130;-0.0058;-0.0193;
475038785155260;-0.0800;0.0162;0.0045;
475038805126991;0.0250;-0.0192;-0.0205;
475038825178260;0.1014;0.0162;-0.0040;
475038845172721;-0.0428;0.0364;-0.0352;
475038865176260;0.0293;-0.0497;0.0222;
475038885175875;0.0544;-0.0235;0.0253;
475038905175529;0.0403;0.0272;-0.0498;
475038925222837;-0.0428;-0.0027;-0.0004;
475038945222567;-0.0147;0.0052;-0.0083;
475038965222529;0.0049;-0.0003;-0.0132;
475038985221221;0.0751;-0.0149;0.0326;
475039005237567;-0.0153;0.0132;-0.0303;
475039025228260;-0.0861;0.0132;-0.0376;
475039045220875;-0.0446;-0.0259;0.0058;
475039065227836;0.1106;-0.0375;0.0687;
475039085225183;0.0092;0.0119;-0.0456;
475039105217836;-0.0361;0.0297;-0.0419;
475039125216606;0.0049;-0.0155;0.0100;
475039145228336;0.1759;-0.0388;0.0729;
475039165227567;-0.0354;-0.0021;-0.0315;
475039185221798;-0.1167;0.0297;-0.0266;
475039205243375;0.0116;-0.0003;0.0027;
475039225163606;0.0733;-0.0461;0.0418;
475039245226183;0.0391;-0.0058;-0.0120;
475039265229182;-0.0959;0.0364;-0.0498;
475039285226567;-0.0189;0.0028;0.0094;
475039305229336;0.0935;-0.0192;0.0235;
475039325221029;0.0544;-0.0003;-0.0101;
475039345221529;-0.0318;-0.0039;0.0100;
475039365226605;-0.0367;0.0187;-0.0358;
475039385223144;0.0208;0.0058;0.0106;
475039405217798;0.0293;-0.0125;-0.0089;
475039425219182;-0.0666;0.0058;0.0051;
475039445224259;-0.0550;-0.0045;-0.0065;
475039465217682;0.0806;0.0089;-0.0278;
475039485217644;0.0379;0.0284;-0.0168;
475039505221682;-0.1051;0.0223;-0.0266;
475039525225490;-0.0165;0.0046;0.0137;
475039545206836;0.0458;-0.0381;0.0522;
475039565199952;-0.0617;0.0046;-0.0217;
475039585223298;-0.0929;0.0382;-0.0260;
475039605216605;0.0831;-0.0516;0.0589;
475039625223605;-0.0525;-0.0015;-0.0040;
475039645240798;-0.0690;0.0168;-0.0517;
475039665218644;0.0281;0.0181;0.0021;
475039685217067;0.0281;-0.0510;0.0332;
475039705216798;-0.0110;-0.0381;0.0589;
475039725229374;-0.1087;0.0291;-0.0975;
475039759878874;0.0892;-0.0467;0.0339;
475039785144951;0.0391;-0.0473;0.0351;
475039805141336;-0.1179;0.0089;-0.0242;
475039825142451;-0.1430;0.0303;-0.0535;
475039845137990;0.0727;-0.0314;0.0455;
475039865169759;0.0189;-0.0485;0.0265;
475039885167490;-0.1491;0.0248;-0.0663;
475039905217605;-0.0434;0.0052;-0.0297;
475039925221297;0.1454;-0.0601;0.0418;
475039945223528;0.0476;-0.0064;-0.0223;
475039965224682;-0.1167;0.0272;-0.0071;
475039985222413;-0.0684;0.0303;-0.0895;
475040005222105;0.0256;-0.0039;0.0259;
475040025222490;-0.0086;-0.0522;0.0363;
475040045157951;0.0446;-0.0418;0.0015;
475040065235836;-0.0550;0.0174;0.0015;
475040085234643;0.0195;0.0003;-0.0248;
475040105237874;0.0782;-0.0730;0.0809;
475040125238643;-0.1136;-0.0326;-0.0101;
475040145234990;-0.0868;0.0822;-0.0639;
475040165252374;0.0201;0.0077;-0.0785;
475040185229297;0.0073;-0.0516;0.1059;
475040205247374;-0.1106;-0.0388;-0.0321;
475040225232720;-0.0770;0.0071;-0.0065;
475040245167374;0.0476;0.0113;-0.0517;
475040265227374;0.0476;0.0199;-0.0193;
475040285221528;-0.1814;-0.0730;0.0852;
475040305275374;-0.0678;-0.0730;0.0736;
475040325222951;0.0782;0.0431;-0.0981;
475040345225297;-0.0354;0.0449;0.0235;
475040365223220;-0.0379;-0.0772;0.0748;
475040385223412;0.0684;-0.0149;0.0021;
475040405226682;0.0800;0.0052;-0.0657;
475040425247797;-0.0416;0.0113;0.0180;
475040445235220;0.0189;-0.0559;0.0253;
475040465218643;-0.0067;-0.0278;0.0821;
475040485225759;0.0092;0.0052;-0.0730;
475040505221182;0.0324;-0.0162;0.0430;
475040525218143;-0.0251;-0.0497;0.0222;
475040545226682;-0.0196;-0.0223;-0.0028;
475040565227258;0.0452;-0.0180;0.0265;
475040585249682;0.0550;-0.0088;-0.0401;
475040605229028;-0.0739;-0.0265;0.0320;
475040625148105;0.0348;-0.0589;0.0259;
475040645220451;0.1008;-0.0003;0.0357;
475040665223681;-0.0739;0.0327;-0.0871;
475040685223681;-0.0403;-0.0070;0.0540;
475040705219451;0.0287;-0.0534;0.0400;
475040725225489;0.0049;-0.0516;0.0131;
475040747501489;0.0116;0.0016;-0.0016;
475040765148258;-0.0306;-0.0094;-0.0297;
475040785148297;-0.0049;-0.0363;0.0491;
475040805138681;0.0366;-0.0394;-0.0327;
475040825183143;0.0098;-0.0119;0.0259;
475040845175720;-0.0257;-0.0278;-0.0065;
475040865177374;0.0800;-0.0473;0.0137;
475040885177143;-0.0318;0.0016;-0.0517;
475040905178066;-0.0593;-0.0076;-0.0065;
475040925168566;0.0922;-0.0534;0.0058;
475040945173220;0.0818;-0.0045;-0.0199;
475040965233412;-0.1417;0.0162;-0.0242;
475040985226181;0.0421;-0.0162;-0.0291;
475041005239335;0.0128;-0.0198;0.0155;
475041025232604;-0.0018;-0.0473;-0.0376;
475041045156643;-0.0635;-0.0296;0.0546;
475041065225720;0.0061;-0.0357;-0.0156;
475041085219373;0.0220;-0.0119;-0.0107;
475041105220104;-0.0959;-0.0351;0.0082;
475041125219066;-0.0391;-0.0614;0.0235;
475041145219835;-0.0623;-0.0070;-0.0443;
475041165222258;-0.0477;-0.0186;-0.0205;
475041185226720;-0.0171;-0.0809;0.0607;
475041205230604;-0.0336;-0.0369;-0.0223;
475041225223373;-0.0562;-0.0192;-0.0291;
475041245242758;-0.0525;-0.0131;-0.0059;
475041265219989;-0.0886;-0.0424;-0.0187;
475041285221643;0.0452;-0.0375;-0.0004;
475041305224412;0.0030;-0.0155;-0.0272;
475041325224066;-0.0324;-0.0491;0.0155;
475041345222143;-0.0098;-0.0271;-0.0156;
475041365222296;-0.0348;-0.0070;-0.0394;
475041385227796;0.0452;-0.0186;-0.0254;
475041405237681;0.0941;-0.0412;0.0381;
475041425225873;-0.0361;-0.0430;-0.0248;
475041445227527;-0.0635;-0.0119;-0.0492;
475041465146412;0.0373;-0.0003;-0.0168;
475041485225219;0.1374;-0.0119;-0.0541;
475041505218104;0.0018;-0.0656;0.0876;
475041525218719;-0.0861;-0.0125;-0.0443;
475041545218758;-0.0049;0.0217;-0.0260;
475041565218835;0.0617;-0.0607;0.0497;
475041585162565;-0.1032;-0.0388;-0.0022;
475041605223450;0.0049;-0.0143;-0.0492;
475041625220565;0.0256;-0.0058;-0.0016;
475041645226796;-0.1313;-0.0461;0.0027;
475041665222258;-0.1356;-0.0278;0.0009;
475041685216027;0.0360;-0.0235;-0.0181;
475041705218681;-0.0104;-0.0027;-0.0376;
475041725222565;-0.1680;-0.0583;0.0595;
475041756808373;0.1081;-0.0351;-0.0492;
475041785145758;-0.0538;-0.0015;-0.0028;
475041805199911;-0.1032;-0.0400;-0.0211;
475041826217065;0.0556;-0.0632;0.0051;
475041845136450;0.0708;-0.0229;0.0051;
475041865202373;-0.0709;-0.0302;-0.0205;
475041885221411;-0.1283;-0.0003;0.0027;
475041905219411;0.0751;-0.0858;0.0033;
475041925216450;0.0782;-0.0595;0.0882;
475041945139796;-0.0813;-0.0400;-0.0718;
475041965221373;-0.0758;-0.0094;0.0308;
475041985224796;0.1325;-0.0644;-0.0285;
475042005220796;0.0305;-0.0876;0.0687;
475042025220834;-0.0299;-0.0601;-0.0248;
475042045222757;0.0513;-0.0088;-0.0364;
475042065148527;0.0910;-0.0351;0.0088;
475042085237219;-0.0697;-0.0675;0.0125;
475042105216296;-0.0324;-0.0375;0.0131;
475042125223373;0.0629;-0.0216;-0.0535;
475042145218065;0.0018;-0.0149;-0.0223;
475042165224680;-0.0984;-0.0699;0.0051;
475042185225065;-0.0318;-0.0992;0.0992;
475042205222103;0.1087;-0.0424;-0.0688;
475042225241719;0.0092;-0.0137;-0.0370;
475042245227142;-0.1320;-0.0180;-0.0419;
475042265248603;-0.0935;-0.0656;0.0174;
475042285222373;0.1191;-0.0931;0.0381;
475042305220296;0.0073;-0.0162;-0.0682;
475042325222642;-0.1057;-0.0333;0.0045;
475042345239642;0.1350;-0.0314;-0.0291;
475042365220488;0.0336;-0.0326;0.0149;
475042385240603;-0.1313;-0.0754;0.0186;
475042405216334;-0.0299;-0.0614;0.0546;
475042425145373;0.1264;-0.0216;-0.0437;
475042445215219;-0.1430;0.0254;-0.0285;
475042465180488;-0.1955;-0.0748;0.0681;
475042485227603;-0.0098;-0.2122;0.1609;
475042505222565;0.1008;-0.1029;0.1102;
475042525222565;0.0708;0.1213;-0.2343;
475042545222872;-0.2663;0.2319;-0.4671;
475042565218719;-0.4722;-0.3259;-0.2465;
475042585264334;0.4209;-0.2208;0.8170;
475042605225565;0.4160;0.0107;-0.2777;
475042625220680;-0.3323;0.2471;-0.6912;
475042645228257;-0.3323;-0.0443;-0.1812;
475042665219911;0.4490;-0.2745;0.3937;
475042685223065;0.4569;-0.0968;0.2269;
475042705215680;-0.1142;0.0840;-0.3705;
475042725229449;-0.3653;0.0437;-0.1176;
475042745217757;0.3531;-0.1915;0.1120;
475042765153411;0.4997;-0.1621;0.0766;
475042785169218;0.0024;0.0284;-0.1457;
475042805167718;-0.1106;0.0504;-0.1244;
475042825180257;0.4649;-0.2837;0.2086;
475042845186180;0.5687;-0.0052;0.0937;
475042865209295;-0.0978;0.2820;-0.4848;
475042885206026;-0.3922;0.0810;-0.2972;
475042905231834;0.0556;-0.3442;0.2593;
475042925226564;0.5137;-0.2409;0.4541;
475042945230911;0.1069;-0.0583;-0.1323;
475042965242834;-0.1662;0.0962;-0.3021;
475042985229757;-0.0599;-0.0479;-0.0382;
475043005229180;0.1649;-0.2128;0.1560;
475043025244911;-0.0012;-0.1402;-0.0028;
475043045231757;-0.2352;-0.0052;-0.1415;
475043065242911;-0.2340;-0.0168;-0.0804;
475043085220180;0.0611;-0.1658;0.0968;
475043105223487;-0.0929;-0.1182;-0.0217;
475043125218218;-0.1796;-0.0247;-0.0993;
475043145236487;-0.0269;-0.0858;0.0076;
475043165216718;0.0092;-0.1902;0.1139;
475043185208295;-0.0574;-0.1628;0.0852;
475043205194641;-0.0861;-0.0992;-0.0358;
475043225196257;0.0165;-0.1053;0.0387;
475043245222987;-0.0251;-0.1536;0.0546;
475043265241026;-0.0464;-0.1744;0.0925;
475043285253603;-0.0153;-0.1389;0.0216;
475043305217757;0.0189;-0.1267;0.0113;
475043325218333;-0.0238;-0.1298;0.0320;
475043345216372;-0.0892;-0.1316;0.0161;
475043365218449;0.0189;-0.1383;0.0027;
475043385222564;0.0672;-0.1444;0.0058;
475043405226295;-0.0929;-0.0956;-0.0633;
475043425239680;-0.1167;-0.0821;-0.0572;
475043445173218;-0.0220;-0.1328;-0.0370;
475043465228026;0.0470;-0.1493;0.0064;
475043485255064;-0.0947;-0.1267;-0.0602;
475043505662872;-0.1039;-0.0766;-0.0743;
475043525220949;0.0489;-0.1182;-0.0071;
475043545223564;-0.0281;-0.1640;-0.0077;
475043565224179;-0.0776;-0.1426;0.0051;
475043585419410;-0.1680;-0.1188;-0.0217;
475043605224372;0.0427;-0.1621;0.0363;
475043625222602;0.1154;-0.1921;0.0491;
475043645224795;-0.0306;-0.1713;-0.0004;
475043665247872;-0.0416;-0.1499;-0.0113;
475043685161679;-0.0257;-0.1457;-0.0193;
475043705304141;0.1075;-0.1890;0.0479;
475043725150910;0.1924;-0.2202;0.0290;
475043748399295;-0.1888;-0.1762;-0.0132;
475043765153679;-0.1509;-0.2012;0.0125;
475043785161448;0.3390;-0.2037;0.0510;
475043805140987;0.2486;-0.1805;-0.0523;
475043825134679;-0.2902;-0.1591;-0.0352;
475043845172256;0.2388;-0.2159;0.0100;
475043865169948;0.4813;-0.2208;-0.0871;
475043885184833;-0.1032;-0.1304;-0.0718;
475043905172679;-0.4606;-0.2104;-0.0706;
475043925226718;0.1655;-0.2214;-0.0211;
475043945181487;0.3836;-0.1976;-0.1109;
475043965224910;-0.0391;-0.1621;-0.1250;
475043985224448;-0.3531;-0.2104;-0.0425;
475044005224871;0.1338;-0.2428;-0.0431;
475044025923525;0.3873;-0.1982;-0.0956;
475044045149179;-0.0006;-0.1621;-0.0950;
475044065204141;-0.2431;-0.2031;-0.0517;
475044085215910;0.2767;-0.2617;-0.0046;
475044105209025;0.1185;-0.1884;-0.0346;
475044126883410;-0.1350;-0.2128;-0.0346;
475044145185910;-0.0544;-0.2483;0.0455;
475044165174717;0.1698;-0.2556;0.0082;
475044185175833;0.0580;-0.2067;-0.0113;
475044205223756;-0.0690;-0.2458;0.0039;
475044225225179;-0.0269;-0.2287;0.0100;
475044245222333;0.0788;-0.2153;-0.0914;
475044265229025;-0.0745;-0.2074;-0.0223;
475044285233410;-0.0715;-0.2642;0.0033;
475044305222371;-0.1197;-0.1835;-0.0822;
475044325222410;-0.0275;-0.1524;-0.1586;
475044345221871;-0.0275;-0.2489;-0.0077;
475044365225217;-0.1381;-0.2098;-0.0303;
475044385223294;-0.1032;-0.1695;-0.0755;
475044405222563;0.0464;-0.1609;-0.0217;
475044425223102;-0.0122;-0.2526;0.0638;
475044445226448;-0.1069;-0.2965;0.1291;
475044465221948;0.0311;-0.2300;0.0119;
475044485171371;0.0770;-0.1689;-0.0394;
475044505220063;-0.0330;-0.2379;0.0638;
475044525224486;-0.0293;-0.2984;0.1169;
475044545225217;0.0745;-0.2526;0.0473;
475044565223140;0.0482;-0.2049;-0.0107;
475044585241063;0.0605;-0.2434;0.0742;
475044605218371;0.0537;-0.2526;0.0339;
475044625219294;0.0782;-0.2116;0.0320;
475044645225102;-0.0892;-0.1609;-0.0804;
475044665232409;-0.1149;-0.1628;-0.0315;
475044685168371;0.1503;-0.2556;0.0485;
475044705234102;0.0476;-0.1951;-0.0370;
475044725220371;-0.1234;-0.1224;-0.1250;
475044745174102;-0.0721;-0.1414;-0.0449;
475044765140832;0.0574;-0.2385;-0.0107;
475044785157371;-0.0348;-0.2019;-0.0016;
475044805282986;-0.1283;-0.1548;-0.1347;
475044825173102;-0.1142;-0.1334;-0.0388;
475044845174832;0.0525;-0.2043;0.0137;
475044865170717;-0.0971;-0.1621;-0.0486;
475044885227486;-0.1362;-0.1151;-0.0419;
475044905231794;-0.0263;-0.1652;0.0106;
475044925216140;0.0293;-0.1750;0.0626;
475044945220332;-0.1240;-0.1640;0.0247;
475044965219794;-0.1265;-0.1310;0.0027;
475044985217371;-0.0098;-0.1237;0.0033;
475045005153640;0.0116;-0.1493;0.0412;
475045025353832;-0.0330;-0.1585;0.0467;
475045045140794;-0.0648;-0.1194;0.0003;
475045065159063;-0.0220;-0.0986;-0.0089;
475045085221371;-0.0043;-0.1444;0.0326;
475045105249255;-0.0208;-0.1389;0.0436;
475045125224755;-0.0550;-0.0864;-0.0449;
475045145222217;-0.0165;-0.0614;-0.0449;
475045165217217;0.0299;-0.1133;0.0125;
475045185234024;0.0434;-0.1212;0.0167;
475045206129640;-0.0110;-0.0595;-0.0572;
475045225234486;-0.0080;-0.0259;-0.0785;
475045245149832;0.0177;-0.0400;-0.0547;
475045265219678;0.0165;-0.0400;-0.0449;
475045285264717;-0.0128;-0.0088;-0.0688;
475045305213563;-0.0397;0.0119;-0.0712;
475045325195101;-0.0031;0.0010;-0.0340;
475045345196755;-0.0012;0.0101;-0.0486;
475045365200678;-0.0501;0.0413;-0.0688;
475045385207370;-0.0470;0.0486;-0.0730;
475045405231563;0.0244;0.0431;-0.0340;
475045425237293;-0.0110;0.0352;-0.0303;
475045445236563;-0.1155;0.0358;-0.0126;
475045465234024;-0.0599;0.0572;-0.0388;
475045485157409;0.0715;0.0828;-0.0346;
475045505236140;-0.0263;0.0645;-0.0187;
475045525244101;-0.1533;0.0694;0.0088;
475045545231793;-0.0745;0.0535;0.0015;
475045565230909;0.0305;0.0736;0.0094;
475045585250832;-0.0593;0.0889;-0.0034;
475045605241716;-0.0770;0.1121;-0.0199;
475045625238716;-0.0422;0.1121;-0.0352;
475045645222216;-0.0238;0.1121;-0.0199;
475045665221909;-0.0635;0.1610;-0.0492;
475045685228178;-0.0434;0.1616;-0.0443;
475045705249178;-0.0678;0.1567;-0.0113;
475045725233793;-0.0257;0.1641;-0.0168;
475045746368832;-0.0122;0.1830;-0.0358;
475045765171793;-0.0318;0.1928;-0.0242;
475045785189216;-0.0324;0.1970;-0.0236;
475045805180716;-0.0458;0.2111;-0.0468;
475045825709639;-0.0281;0.2135;-0.0419;
475045845131716;-0.0348;0.1830;0.0204;
475045865176985;-0.0409;0.1909;0.0064;
475045885170332;-0.0635;0.2496;-0.0413;
475045905131485;-0.0336;0.2435;-0.0425;
475045925172716;0.0140;0.2080;0.0345;
475045945229255;-0.0159;0.1854;0.0803;
475045965227024;0.0232;0.1763;0.0644;
475045985229332;0.0385;0.2203;0.0125;
475046005228716;-0.0367;0.2404;-0.0181;
475046025246601;-0.0055;0.2258;0.0149;
475046045247947;-0.0257;0.2245;0.0314;
475046065226716;-0.0416;0.2245;0.0009;
475046085224293;-0.0458;0.2374;0.0070;
475046105245293;-0.0458;0.2508;-0.0052;
475046125231024;-0.0477;0.2642;-0.0101;
475046145151216;-0.0116;0.2899;-0.0376;
475046165149254;-0.0501;0.2997;-0.0272;
475046185146601;-0.0361;0.2551;0.0296;
475046205152139;-0.0141;0.2587;0.0357;
475046225184216;-0.0220;0.3143;-0.0303;
475046245174985;-0.0495;0.3363;-0.0456;
475046265145639;-0.0391;0.3308;-0.0187;
475046285145870;-0.0403;0.3559;-0.0059;
475046305240370;-0.0843;0.3467;-0.0040;
475046325149331;-0.0684;0.3265;0.0510;
475046345139831;-0.0409;0.3265;0.0766;
475046365139447;-0.0037;0.3394;0.0076;
475046385145908;-0.0208;0.3516;0.0253;
475046405148716;-0.0874;0.3418;0.0277;
475046425181870;-0.0073;0.3870;-0.0077;
475046445183524;0.0226;0.3950;0.0100;
475046465176370;0.0055;0.3455;0.0620;
475046485235985;-0.0397;0.3485;0.0901;
475046505184447;-0.0391;0.3595;0.0418;
475046525156139;-0.0141;0.3986;0.0430;
475046545161331;-0.0196;0.3797;0.0363;
475046565150216;-0.0556;0.3711;0.0503;
475046585157716;-0.0342;0.3644;0.0632;
475046605166985;-0.0226;0.3601;0.0601;
475046625235177;-0.0721;0.3931;0.0082;
475046645202100;-0.0361;0.4334;-0.0388;
475046665207254;0.0201;0.3876;0.0082;
475046685234100;0.0024;0.3546;0.0748;
475046705230216;-0.0452;0.4078;0.0222;
475046725246600;-0.0299;0.4622;-0.0309;
475046747269869;0.0440;0.3840;0.0210;
475046765152946;-0.0171;0.3449;0.0968;
475046785191639;-0.0654;0.4133;0.0137;
475046805140716;-0.0012;0.5122;-0.0498;
475046825129177;-0.0379;0.3901;-0.0364;
475046845129523;-0.0574;0.4151;0.1481;
475046865173062;-0.0654;0.3913;-0.0077;
475046885170639;0.0073;0.5122;-0.0449;
475046905175215;0.0006;0.4744;-0.0602;
475046925127177;-0.1167;0.4359;0.0736;
475046945171446;-0.0006;0.4322;0.0656;
475046965226908;0.0379;0.4695;-0.0095;
475046985150177;0.0311;0.5013;0.0375;
475047005239100;-0.0330;0.4347;0.0485;
475047025229215;-0.0342;0.4591;0.0546;
475047045232100;0.0220;0.4811;0.0082;
475047065227177;0.0696;0.5037;-0.0242;
475047085227715;-0.0776;0.4994;0.0552;
475047105250638;-0.0819;0.4304;0.0986;
475047125233369;0.0324;0.4548;0.0858;
475047145223677;0.0348;0.5507;-0.0388;
475047165221831;-0.0574;0.5532;-0.0126;
475047185229331;0.0092;0.4585;0.1041;
475047205222061;0.0305;0.4505;0.1127;
475047225222408;0.0232;0.5410;-0.0199;
475047245227908;-0.0513;0.5556;0.0039;
475047265223408;0.0024;0.4866;0.1023;
475047285143446;0.0128;0.4780;0.0821;
475047305242869;-0.0446;0.5666;0.0161;
475047325242061;0.0953;0.5599;0.0595;
475047345226061;-0.0244;0.4768;0.1304;
475047365223023;-0.0715;0.5086;0.0754;
475047385221946;0.0434;0.5678;0.0247;
475047405224369;0.0324;0.5257;0.0705;
475047425149100;-0.0819;0.4768;0.1353;
475047445217946;-0.0666;0.5019;0.0565;
475047465226484;0.0324;0.5501;0.0125;
475047485223869;-0.0208;0.5177;0.0540;
475047505225446;-0.0587;0.4817;0.1090;
475047525255830;-0.0745;0.5110;0.0693;
475047545221523;-0.0165;0.5214;0.0534;
475047565221561;-0.0012;0.4927;0.0815;
475047585251292;-0.1106;0.5275;0.0540;
475047605227253;-0.0251;0.5202;0.0540;
475047625221561;0.0525;0.4872;0.1139;
475047645230676;-0.0354;0.4860;0.0943;
475047665227100;-0.0916;0.5031;0.0833;
475047685224715;-0.0202;0.4964;0.0699;
475047705221023;0.0434;0.4933;0.0711;
475047725256176;-0.0788;0.5122;0.0351;
475047746702561;-0.0220;0.5165;0.0595;
475047766585715;-0.0018;0.4933;0.0784;
475047786889792;0.0305;0.4854;0.0864;
475047806214984;-0.0409;0.5348;0.0076;
475047825146523;-0.0361;0.5416;0.0308;
475047845133292;0.0214;0.4909;0.0565;
475047865129792;-0.0135;0.5043;0.0528;
475047885178253;-0.0141;0.5245;0.0259;
475047905221830;-0.0092;0.5355;0.0436;
475047925235869;0.0165;0.4793;0.0656;
475047945224907;0.0281;0.4988;0.0888;
475047965224253;-0.0189;0.5232;0.0137;
475047985227253;-0.0196;0.5831;-0.0077;
475048005226176;0.0171;0.5312;0.0436;
475048025229715;0.0067;0.4756;0.1243;
475048045221407;-0.0648;0.5306;0.0528;
475048065230061;0.0104;0.5874;-0.0107;
475048085145061;0.0434;0.5135;0.0748;
475048105216292;-0.0263;0.5306;0.0992;
475048125160945;-0.0629;0.5501;0.0552;
475048145233561;-0.0073;0.5483;0.0736;
475048165225984;0.0165;0.5501;0.0919;
475048185145753;-0.0440;0.5526;0.0448;
475048205145868;-0.0721;0.5801;0.0528;
475048225238176;-0.0147;0.5837;0.0296;
475048245232599;-0.0281;0.5691;0.0583;
475048265242407;-0.0501;0.5678;0.0772;
475048285234330;-0.0721;0.5611;0.0644;
475048305224753;-0.0263;0.5648;0.0839;
475048325219214;0.0043;0.6173;0.0442;
475048345231484;-0.0251;0.5733;0.0797;
475048365217638;-0.0709;0.5171;0.1548;
475048385220484;-0.0629;0.5758;0.0675;
475048405224214;-0.0397;0.6314;0.0106;
475048425147561;-0.0367;0.5935;0.0723;
475048445229599;-0.0953;0.5373;0.0980;
475048465144022;-0.0904;0.5886;0.0558;
475048485184330;-0.0519;0.6381;-0.0113;
475048505133945;-0.0739;0.5898;0.0699;
475048525134022;-0.1051;0.5611;0.1065;
475048545151522;-0.0776;0.6094;0.0491;
475048565231676;-0.0507;0.6222;0.0552;
475048585227560;-0.0941;0.5880;0.1310;
475048605151214;-0.0806;0.5733;0.0870;
475048625232714;-0.0189;0.6143;0.0907;
475048645222253;-0.0428;0.6069;0.0772;
475048665151830;-0.0452;0.5709;0.1359;
475048685238599;-0.0470;0.5807;0.1157;
475048705235214;-0.0147;0.6118;0.0699;
475048725144830;-0.0165;0.6027;0.0962;
475048745418560;-0.0452;0.5782;0.1114;
475048765144868;-0.0574;0.5978;0.0681;
475048785400714;-0.0299;0.6363;0.0314;
475048805189599;-0.0306;0.5941;0.0632;
475048825144329;-0.0800;0.6075;0.0387;
475048845186406;-0.0568;0.6668;0.0155;
475048865191906;-0.0733;0.6143;0.0766;
475048885185753;-0.0855;0.5672;0.1658;
475048905187483;-0.0165;0.5972;0.1065;
475048925188753;0.0146;0.5965;0.0772;
475048945186637;-0.1063;0.5794;0.1695;
475048965232291;-0.1124;0.5587;0.1316;
475048985226099;-0.0037;0.5923;0.1175;
475049005216906;-0.0306;0.6094;0.0192;
475049025218752;-0.1393;0.6191;0.0418;
475049045229906;-0.1228;0.5611;0.0894;
475049065232906;0.0030;0.5440;0.0839;
475049085236175;-0.0287;0.6161;0.0552;
475049105230291;-0.1026;0.6198;0.0326;
475049125225445;-0.0318;0.5807;0.0882;
475049145238483;0.0116;0.5556;0.0760;
475049165223291;-0.0684;0.6246;0.0051;
475049185222906;-0.0947;0.6546;-0.0352;
475049205222291;-0.0263;0.6222;0.0387;
475049225220406;-0.0122;0.5825;0.0833;
475049245152675;-0.0525;0.6094;0.0528;
475049265180829;-0.0385;0.6564;0.0216;
475049285152521;-0.0238;0.6149;0.0754;
475049305175252;0.0293;0.5196;0.1976;
475049325146560;-0.1136;0.6601;0.0332;
475049345183021;-0.0635;0.6540;-0.0883;
475049365220829;-0.0825;0.5758;0.1536;
475049385219868;0.0208;0.5385;0.0858;
475049405227444;-0.1057;0.6118;0.0595;
475049425220483;-0.0275;0.6167;0.0174;
475049445221329;-0.0416;0.5837;0.0998;
475049465220944;-0.0232;0.5532;0.1182;
475049485223367;-0.0018;0.5849;0.0839;
475049505222214;0.0250;0.6253;0.0620;
475049525223060;0.0177;0.5978;0.0858;
475049545226829;-0.1026;0.5575;0.1890;
475049565226714;0.1613;0.5917;0.0821;
475049585223098;0.0098;0.6088;0.0558;
475049605234444;-0.0855;0.5746;0.1084;
475049625227367;-0.0275;0.5251;0.1377;
475049645224021;0.0843;0.5648;0.0846;
475049665228521;-0.0122;0.6320;0.0400;
475049685233983;-0.0623;0.5996;0.0766;
475049705223137;-0.0306;0.4878;0.2037;
475049725148713;0.0641;0.5080;0.1524;
475049752570944;-0.1191;0.6686;-0.0083;
475049785146483;0.0232;0.5367;0.1279;
475049805143252;0.0263;0.5495;0.1175;
475049825162598;-0.1533;0.6265;0.0522;
475049845172906;-0.0739;0.5697;0.0913;
475049865189406;-0.0098;0.4915;0.1847;
475049885189060;-0.1509;0.5367;0.0815;
475049905199521;-0.2505;0.6265;0.0259;
475049925217252;-0.0965;0.5575;0.0723;
475049945209059;0.0605;0.4903;0.2037;
475049965235367;-0.1106;0.5129;0.0949;
475049985195021;-0.2010;0.6045;0.0381;
475050005195406;-0.0483;0.5794;0.0693;
475050025191598;0.0061;0.5208;0.1261;
475050045216982;-0.1051;0.5330;0.0668;
475050065217944;-0.0758;0.5923;0.0271;
475050085224059;-0.0312;0.5251;0.0882;
475050105247213;-0.0110;0.4762;0.1243;
475050125227829;0.0061;0.5678;0.0229;
475050145218175;0.0189;0.5752;0.0064;
475050165241405;-0.0226;0.5312;0.1041;
475050185226098;-0.0086;0.5086;0.0980;
475050205218405;0.0293;0.5422;0.0192;
475050225226982;-0.0458;0.5788;-0.0028;
475050245226059;-0.0635;0.5361;0.0442;
475050265228713;0.0134;0.5037;0.0742;
475050285238944;0.0055;0.5232;0.0296;
475050305227444;-0.0177;0.5306;0.0235;
475050325222828;0.0214;0.4988;0.0778;
475050345220444;0.0550;0.4750;0.0901;
475050365234559;0.0024;0.5129;0.0222;
475050385222328;0.0043;0.5159;0.0528;
475050405231175;0.0305;0.4487;0.1065;
475050425222482;0.0354;0.4762;0.0925;
475050445219328;0.0116;0.5294;0.0302;
475050465225444;-0.0202;0.4854;0.0711;
475050485222559;-0.0263;0.4481;0.1163;
475050505147405;0.0403;0.4695;0.0644;
475050525237636;0.0085;0.4970;0.0595;
475050545152021;-0.0697;0.4829;0.0705;
475050565225136;0.0012;0.4603;0.0864;
475050585229251;-0.0110;0.4402;0.0943;
475050605140751;-0.0941;0.4573;0.0833;
475050625220674;-0.0361;0.4426;0.0479;
475050645227597;-0.0183;0.4695;0.0400;
475050665223790;-0.0959;0.4170;0.1010;
475050685224444;-0.0654;0.3650;0.1487;
475050705225251;0.0330;0.3730;0.1322;
475050725149059;-0.0098;0.3772;0.0827;
475050745168367;-0.1069;0.3742;0.1108;
475050765702674;-0.0153;0.3131;0.1212;
475050786410905;-0.0135;0.3345;0.0736;
475050806413674;-0.0953;0.3406;0.0528;
475050825195905;-0.0367;0.3009;0.0852;
475050845175328;0.0263;0.2960;0.0791;
475050865216636;0.0067;0.3308;0.0296;
475050885220328;-0.0086;0.3149;0.0668;
475050905219136;0.0189;0.2532;0.1463;
475050925225982;0.0134;0.2361;0.1133;
475050945222559;-0.0098;0.2936;0.0436;
475050965225366;0.0018;0.2911;0.0381;
475050985150251;0.0092;0.2312;0.0980;
475051005145943;0.0232;0.2105;0.1078;
475051025220674;0.0482;0.2215;0.0601;
475051045216713;0.0153;0.2374;0.0406;
475051065229674;0.0843;0.2007;0.0522;
475051085228366;0.0660;0.1524;0.0522;
475051105229597;0.0293;0.1787;0.0461;
475051125241982;0.0452;0.2019;-0.0071;
475051145151597;0.0800;0.1867;-0.0156;
475051165229059;-0.0006;0.1457;0.0516;
475051185142405;-0.0073;0.1219;0.0430;
475051205159866;0.0617;0.1824;-0.0077;
475051225223905;0.0110;0.1555;-0.0052;
475051245146789;-0.0574;0.1091;0.1218;
475051265223135;-0.0452;0.0681;0.0705;
475051285223212;-0.0373;0.1011;0.0839;
475051305220828;-0.0232;0.1091;0.0473;
475051325223635;-0.0232;0.0376;0.0827;
475051345148135;-0.0165;0.0260;0.1120;
475051365224751;-0.0012;0.0382;0.0491;
475051385151482;-0.0648;0.0620;0.0015;
475051405229597;-0.0361;0.0419;0.0430;
475051425226289;-0.0012;-0.0027;0.0394;
475051445219751;0.0104;0.0370;0.0418;
475051465219251;-0.0385;0.0388;-0.0004;
475051485224481;0.0018;-0.0003;0.0565;
475051505221481;0.0012;-0.0290;0.0626;
475051525229097;-0.0165;0.0199;-0.0254;
475051545222712;-0.0556;0.0370;-0.0199;
475051565235058;0.0977;-0.0485;0.0167;
475051585225943;0.0507;-0.0388;0.0247;
475051605216366;-0.0635;-0.0149;-0.0278;
475051625145597;-0.0165;-0.0210;-0.0303;
475051645224635;0.1063;-0.0620;0.0174;
475051665223443;0.1197;-0.0406;-0.0419;
475051685227289;-0.0373;0.0052;-0.0352;
475051705227058;-0.0257;-0.0595;-0.0168;
475051725146097;0.0415;-0.0559;0.0015;
475051745164789;0.0922;-0.0644;0.0027;
475051766410904;-0.0171;-0.0559;-0.0242;
475051786513943;-0.0379;-0.0357;-0.0553;
475051806253558;0.0843;-0.0730;-0.0553;
475051825161443;0.0660;-0.1066;0.0296;
475051845153520;-0.0544;-0.0846;-0.0315;
475051865174135;-0.0318;-0.0388;-0.0419;
475051885168212;0.0727;-0.1047;0.0003;
475051905172058;0.0201;-0.1292;0.0516;
475051925168135;-0.0196;-0.1151;-0.0101;
475051945168673;-0.0092;-0.0925;-0.0150;
475051965168943;0.0690;-0.1475;0.0216;
475051985242327;-0.0025;-0.1750;0.0632;
475052005225750;0.0214;-0.1353;-0.0120;
475052025226520;0.0006;-0.0699;-0.0920;
475052045224481;-0.0171;-0.0907;-0.0468;
475052065223250;0.0128;-0.1860;0.0479;
475052085228096;-0.0306;-0.1591;-0.0089;
475052105222827;-0.0635;-0.0998;-0.0816;
475052125146519;-0.0104;-0.1035;-0.0785;
475052145230173;-0.0122;-0.1518;-0.0407;
475052165231712;-0.0299;-0.1395;-0.0700;
475052185250250;-0.1039;-0.1102;-0.0792;
475052205145442;-0.0715;-0.1200;-0.0706;
475052225224058;0.0030;-0.1524;-0.0358;
475052245231212;-0.0538;-0.1719;-0.0193;
475052265226058;-0.1393;-0.1567;-0.0285;
475052285228942;-0.0642;-0.1224;-0.0859;
475052305243635;0.0153;-0.1408;-0.0437;
475052325228250;-0.0715;-0.1518;-0.0132;
475052345239750;-0.0519;-0.1921;0.0100;
475052365242019;-0.0092;-0.1957;0.0546;
475052385263096;0.0061;-0.1701;-0.0285;
475052405223673;-0.0800;-0.1340;-0.0272;
475052425229981;-0.0306;-0.1805;-0.0052;
475052445145481;-0.0055;-0.1805;0.0357;
475052465232904;-0.1069;-0.1964;0.0137;
475052485227635;-0.0318;-0.1567;-0.0340;
475052505225058;-0.0141;-0.1597;-0.0242;
475052525232904;-0.0617;-0.1896;0.0229;
475052545224711;-0.0574;-0.1157;-0.0737;
475052565225096;-0.0147;-0.1499;-0.0718;
475052585221442;-0.0153;-0.1915;0.0497;
475052605263058;-0.0348;-0.2263;-0.0144;
475052625212288;-0.0764;-0.1554;-0.0834;
475052645209481;-0.0458;-0.1530;-0.1140;
475052665226134;-0.0568;-0.1713;-0.0657;
475052685228327;0.0146;-0.1359;-0.1390;
475052705221057;-0.0287;-0.1194;-0.1464;
475052725146211;-0.0935;-0.1542;-0.0492;
475052747379211;-0.0153;-0.2183;0.0284;
475052765155365;-0.0055;-0.2471;0.0167;
475052785162211;-0.0880;-0.2086;-0.0052;
475052805127865;0.0641;-0.0809;-0.1702;
475052825180173;0.0269;-0.1096;-0.1189;
475052845175480;-0.0825;-0.2605;0.0681;
475052865218827;0.0916;-0.2183;0.0009;
475052885220173;0.0159;-0.1292;-0.1402;
475052905220211;-0.1167;-0.1224;-0.0523;
475052925150711;-0.1155;-0.1951;0.0106;
475052945224480;0.1222;-0.2080;0.0100;
475052965222250;0.0592;-0.1896;-0.0223;
475052985219634;-0.1228;-0.1652;-0.0504;
475053005231057;-0.0416;-0.1774;-0.0327;
475053025223480;0.1161;-0.1970;-0.0107;
475053045225750;-0.1332;-0.1829;-0.0511;
475053065223403;-0.1326;-0.1731;-0.0456;
475053085147750;0.0702;-0.1621;-0.0639;
475053105226788;0.0489;-0.1750;-0.0407;
475053125241096;-0.0806;-0.1994;0.0357;
475053145230826;-0.0642;-0.2074;0.0326;
475053165229519;0.1307;-0.2581;0.0778;
475053185223288;0.1179;-0.2636;0.0241;
475053205254134;-0.1882;-0.1780;-0.0608;
475053225222057;-0.0904;-0.1157;-0.1683;
475053245228519;0.2413;-0.1793;-0.0566;
475053265223865;0.0690;-0.2507;0.0106;
475053285223403;-0.1503;-0.1890;-0.0566;
475053305225249;0.0495;-0.1481;-0.0902;
475053325222596;0.1167;-0.1945;-0.0144;
475053345229557;-0.1069;-0.2092;-0.0156;
475053365222865;-0.1368;-0.1615;-0.0828;
475053385223749;0.0183;-0.1573;-0.1018;
475053405232095;0.0880;-0.2019;-0.0144;
475053425234865;-0.0770;-0.2128;-0.0431;
475053445197672;-0.0452;-0.1719;-0.0602;
475053465195172;0.0641;-0.1823;-0.0340;
475053485203365;0.0715;-0.2196;0.0003;
475053505224595;-0.0525;-0.2086;0.0161;
475053525337903;-0.0104;-0.1945;-0.0120;
475053545221980;0.1173;-0.2171;0.0308;
475053565147595;-0.0293;-0.2300;0.0351;
475053585234711;-0.0238;-0.2104;0.0106;
475053605246557;0.0702;-0.2147;0.0009;
475053625148403;0.0794;-0.2251;0.0045;
475053645226095;-0.0348;-0.2031;-0.0168;
475053665224788;-0.0550;-0.1982;-0.0217;
475053685226057;0.0446;-0.1939;-0.0321;
475053705228172;0.0550;-0.1878;-0.0321;
475053725146595;-0.0416;-0.1744;-0.0596;
475053745164364;-0.0104;-0.1719;-0.0608;
475053765166441;0.0880;-0.1725;-0.0187;
475053785149826;0.0006;-0.1890;-0.0614;
475053805165134;-0.0244;-0.1939;-0.0449;
475053825225249;0.0427;-0.1634;-0.0456;
475053845373672;0.0452;-0.1744;-0.0761;
475053865182287;-0.0299;-0.1902;-0.0181;
475053885172826;0.0128;-0.1921;-0.0474;
475053905226441;0.0391;-0.1719;-0.0627;
475053925219826;0.0238;-0.1762;-0.0376;
475053945225095;-0.0006;-0.1603;-0.0584;
475053965223557;-0.0141;-0.1609;-0.0346;
475053985225441;0.0366;-0.1554;-0.0523;
475054005221672;0.0519;-0.1597;-0.0065;
475054025226364;-0.0214;-0.1658;-0.0156;
475054045234749;0.0281;-0.1395;-0.0285;
475054065223172;0.0605;-0.1493;-0.0260;
475054085221441;0.0287;-0.1554;-0.0089;
475054105224172;0.0183;-0.1463;-0.0468;
475054125225210;0.0427;-0.1457;-0.0156;
475054145151595;0.0495;-0.1377;-0.0614;
475054165223672;0.0574;-0.1347;-0.0254;
475054185226518;0.0024;-0.1487;-0.0223;
475054205227364;0.0055;-0.1383;-0.0217;
475054225250595;0.0122;-0.1243;-0.0266;
475054245237826;0.0342;-0.1353;-0.0211;
475054265228633;0.0281;-0.1322;0.0210;
475054285232710;0.0116;-0.1157;-0.0205;
475054305229287;0.0128;-0.1072;-0.0303;
475054325245941;0.0232;-0.1383;0.0070;
475054345241056;-0.0116;-0.1463;0.0308;
475054365227902;-0.0342;-0.1163;-0.0346;
475054385246326;0.0250;-0.1078;-0.0077;
475054405246364;0.0238;-0.1188;-0.0272;
475054425254018;0.0030;-0.1389;0.0296;
475054445230172;-0.0391;-0.1432;-0.0010;
475054465237595;0.0067;-0.1169;-0.0242;
475054485218710;0.0037;-0.1096;-0.0315;
475054505234095;-0.0135;-0.1237;-0.0260;
475054525232056;-0.0293;-0.1023;-0.0248;
475054545236441;-0.0208;-0.1163;-0.0242;
475054565223556;-0.0318;-0.1224;-0.0107;
475054585245979;-0.0403;-0.1298;-0.0364;
475054605165556;-0.0275;-0.1658;-0.0144;
475054625234056;-0.0843;-0.1658;-0.0908;
475054645235710;0.2272;-0.1237;-0.1201;
475054665229671;-0.1576;0.0871;-0.3962;
475054685146556;-0.3506;0.0407;-0.2795;
475054705236710;0.0256;-0.0589;-0.0285;
475054725253364;0.3121;-0.1585;0.1145;
475054745322633;0.1057;-0.2636;0.2464;
475054765153094;-0.3171;-0.2012;0.1310;
475054785147825;-0.1228;0.0107;-0.0327;
475054805138479;0.1894;-0.1182;0.0424;
475054825177633;-0.0379;-0.1872;0.1328;
475054845148710;-0.2328;-0.0833;-0.0724;
475054865178941;-0.0189;-0.0345;-0.0437;
475054885226710;0.0892;-0.1310;0.1053;
475054905229787;-0.0067;-0.2171;0.2104;
475054925246056;-0.1289;-0.1072;0.0888;
475054945232325;-0.0110;-0.0430;-0.0321;
475054965245402;-0.0354;-0.0833;0.0522;
475054985244248;0.0085;-0.1628;0.0888;
475055005231094;-0.0507;-0.0950;0.0247;
475055025255133;-0.0165;-0.0485;-0.0749;
475055045152748;-0.0800;-0.1261;0.0076;
475055065229902;-0.0605;-0.1322;-0.0010;
475055085224863;0.0470;-0.0565;-0.0498;
475055105231210;-0.0012;-0.0571;-0.1048;
475055125245402;0.0415;-0.0809;0.0235;
475055145233248;0.0354;-0.1310;0.0015;
475055165226017;-0.0635;-0.0510;-0.0816;
475055185223594;-0.0745;-0.1023;-0.0566;
475055205226671;0.1044;-0.1768;0.0913;
475055225251556;0.2614;-0.1395;-0.1011;
475055245382094;-0.4288;0.1616;-0.3119;
475055265223402;-0.4685;0.0639;-0.2771;
475055285224825;0.5968;-0.2599;0.1701;
475055305229633;-0.1992;-0.0687;-0.0908;
475055325217479;-0.3806;0.0223;-0.1390;
475055345246940;0.4160;-0.1273;0.0345;
475055365227863;0.1472;-0.1469;0.0149;
475055385230863;-0.2382;-0.1176;0.0051;
475055405231940;-0.0226;-0.0827;0.0888;
475055425229248;0.2523;-0.1114;-0.0578;
475055445145094;0.1154;-0.0821;0.1120;
475055465224979;-0.1570;-0.1560;0.0956;
475055485218286;-0.0055;-0.1218;0.0888;
475055505220709;0.2706;-0.0467;0.0387;
475055525227748;0.0165;-0.0876;0.0302;
475055545226825;-0.1711;-0.1224;0.0418;
475055565150132;0.0629;-0.0412;0.0039;
475055585228171;0.0635;-0.0754;-0.0144;
475055605253363;-0.0654;-0.0962;0.0027;
475055625225940;-0.1356;-0.0919;0.0357;
475055645227632;-0.0128;-0.0956;-0.0578;
475055665227940;0.0721;-0.0449;-0.0242;
475055685222363;-0.0959;-0.0962;-0.0370;
475055705226055;-0.1081;-0.0785;-0.0278;
475055725239901;-0.0293;-0.0699;-0.0364;
475055745793017;-0.0012;-0.0846;-0.0700;
475055765161632;-0.0324;-0.0339;-0.0535;
475055785170171;-0.0281;-0.0363;-0.0321;
475055805137671;0.0263;-0.0785;-0.0559;
475055825146132;-0.0208;-0.0650;-0.0419;
475055845173594;-0.0941;-0.0614;-0.0333;
475055865178209;-0.0416;-0.0724;-0.0657;
475055885215671;0.0806;-0.0314;-0.0291;
475055905221709;-0.0269;-0.0681;-0.0492;
475055925224401;-0.0800;-0.0559;-0.0340;
475055945225363;-0.0043;-0.0418;-0.0095;
475055965226594;0.0189;-0.0913;0.0021;
475055985221555;0.0452;-0.0748;0.0400;
475056005224440;-0.0122;-0.0968;0.0729;
475056025226478;-0.0025;-0.0962;0.0155;
475056045231363;0.0366;-0.0797;0.0027;
475056065167094;0.0226;-0.0528;0.0510;
475056085149747;-0.0061;-0.1096;0.0229;
475056105218709;0.0195;-0.0681;0.0192;
475056125219863;0.0134;-0.0424;-0.0162;
475056145223247;-0.0361;-0.0895;0.0149;
475056165220478;0.0153;-0.0876;0.0363;
475056185223324;0.0226;-0.0656;-0.0071;
475056205225401;-0.0293;-0.0559;-0.0370;
475056225227747;0.0238;-0.0430;-0.0248;
475056245228440;-0.0244;-0.0833;-0.0083;
475056265225016;-0.0525;-0.0797;-0.0370;
475056285228132;-0.0232;-0.0443;-0.0559;
475056305233247;0.0421;-0.0552;-0.0156;
475056325230824;-0.0409;-0.1017;-0.0120;
475056345224247;-0.0312;-0.0772;-0.0285;
475056365227170;0.0189;-0.0583;-0.0223;
475056385228132;0.0067;-0.0864;-0.0425;
475056405221324;0.0482;-0.0614;-0.0236;
475056425228632;0.0385;-0.0687;-0.0120;
475056445261401;-0.0507;-0.0986;-0.0101;
475056465152170;0.0660;-0.0607;-0.0242;
475056485230439;0.0452;-0.0406;-0.0168;
475056505220862;-0.0318;-0.0968;0.0070;
475056525220170;-0.0293;-0.1188;0.0253;
475056545230978;0.0391;-0.0730;-0.0101;
475056565240939;0.0275;-0.0455;-0.0144;
475056585247247;-0.0275;-0.0950;-0.0150;
475056605152362;0.0354;-0.0858;0.0277;
475056625147901;0.0208;-0.0748;-0.0046;
475056645155362;-0.0416;-0.0620;-0.0382;
475056665224709;0.0311;-0.0394;-0.0107;
475056685242785;0.0385;-0.0846;0.0339;
475056705218670;-0.0318;-0.0986;-0.0065;
475056725228516;0.0189;-0.0418;-0.0217;
475056745307285;0.0049;-0.0583;-0.0010;
475056765171939;-0.0342;-0.0937;0.0033;
475056785173631;-0.0269;-0.0754;-0.0327;
475056805261285;0.0183;-0.0473;-0.0352;
475056825141093;0.0379;-0.0485;-0.0144;
475056845229862;-0.0568;-0.0992;0.0186;
475056865192285;-0.0012;-0.0876;-0.0016;
475056885174593;-0.0000;-0.0418;-0.0205;
475056905170670;-0.0159;-0.0497;-0.0297;
475056925216439;-0.0208;-0.0766;0.0161;
475056945237131;0.0006;-0.0827;0.0192;
475056965156670;-0.0342;-0.0546;-0.0199;
475056985223324;-0.0727;-0.0229;-0.0217;
475057005195324;-0.0489;-0.0650;0.0106;
475057025197131;0.0831;-0.0882;0.0094;
475057045188401;-0.1039;-0.0259;-0.0187;
475057065185977;-0.1515;-0.0497;0.0009;
475057085140170;0.0867;-0.0742;0.0339;
475057105174439;0.1313;-0.0546;-0.0059;
475057125217785;-0.0819;-0.0473;0.0131;
475057145233439;-0.1399;-0.0626;0.0119;
475057165223285;0.0574;-0.0638;0.0131;
475057185218516;0.0757;-0.0705;0.0039;
475057205169093;-0.0409;-0.0461;0.0113;
475057225223785;-0.0861;-0.0479;-0.0120;
475057245228131;0.0452;-0.0644;0.0088;
475057269331285;-0.0281;-0.0607;0.0088;
475057305140670;-0.0073;-0.0400;-0.0144;
475057325139246;0.0818;-0.0552;0.0064;
475057345221054;-0.0611;-0.0607;-0.0162;
475057365225054;-0.0721;-0.0333;-0.0181;
475057385223746;-0.0275;-0.0155;-0.0602;
475057405221208;0.0373;-0.0369;-0.0065;
475057425222054;-0.0519;-0.0516;-0.0095;
475057445230054;-0.0715;-0.0284;-0.0150;
475057465225708;-0.0428;-0.0284;-0.0205;
475057485163323;-0.0061;-0.0479;0.0113;
475057505230131;-0.0409;-0.0461;0.0082;
475057525225093;-0.0464;-0.0351;-0.0095;
475057545221554;0.0153;-0.0186;-0.0193;
475057565216592;-0.0434;-0.0400;-0.0004;
475057585227054;-0.0269;-0.0510;0.0345;
475057605242092;-0.0110;-0.0394;0.0088;
475057625229554;0.0263;-0.0381;0.0161;
475057645225477;-0.0238;-0.0265;-0.0010;
475057665221669;-0.0263;-0.0314;0.0210;
475057685230362;-0.0116;-0.0516;0.0229;
475057705226631;0.0238;-0.0271;0.0009;
475057725230285;-0.0196;-0.0039;-0.0340;
475057745199477;-0.0525;-0.0455;0.0387;
475057765220246;-0.0257;-0.0571;0.0119;
475057786457015;-0.0189;-0.0125;-0.0187;
475057805194285;-0.0324;-0.0314;0.0015;
475057825139169;-0.0269;-0.0406;0.0210;
475057845129977;0.0061;-0.0504;0.0113;
475057865131823;-0.0025;-0.0357;0.0058;
475057885193900;-0.0238;-0.0143;-0.0315;
475057905179092;-0.0416;-0.0180;-0.0101;
475057925221092;-0.0018;-0.0491;0.0339;
475057945221323;0.0226;-0.0479;0.0039;
475057965222246;-0.0342;-0.0192;-0.0101;
475057985231900;-0.0043;-0.0094;-0.0175;
475058005233208;-0.0055;-0.0424;-0.0022;
475058025248054;0.0385;-0.0436;-0.0266;
475058045226708;0.0030;0.0003;-0.0052;
475058065248823;-0.0373;-0.0186;-0.0413;
475058085229477;-0.0477;-0.0241;0.0161;
475058105232631;0.0641;-0.0320;-0.0217;
475058125220092;0.0788;-0.0052;-0.0260;
475058145239977;-0.0458;-0.0351;-0.0052;
475058165224438;-0.0495;-0.0461;0.0363;
475058185222515;0.0446;-0.0235;-0.0187;
475058205217900;0.0696;0.0083;-0.0566;
475058225219823;-0.0477;-0.0271;0.0174;
475058245216823;-0.0623;-0.0571;0.0100;
475058265234246;0.0556;-0.0265;0.0174;
475058285242284;-0.0012;-0.0278;-0.0034;
475058305237669;-0.0513;-0.0308;0.0247;
475058325233553;-0.0025;-0.0333;-0.0059;
475058345212746;0.0886;-0.0809;0.0540;
475058365144323;-0.1112;-0.0943;0.0003;
475058385146977;0.2052;-0.0534;-0.0272;
475058405153553;-0.0507;0.1903;-0.3040;
475058425207438;-0.2242;0.1537;-0.3528;
475058445145246;-0.1930;0.0443;-0.0394;
475058465157938;0.2712;-0.0840;0.1120;
475058485152707;0.2394;-0.1664;0.2593;
475058505181438;-0.2211;-0.1402;0.1744;
475058525235092;-0.2181;0.0706;-0.1390;
475058545146169;0.2889;-0.0168;0.0516;
475058565149130;0.0476;-0.1023;0.0962;
475058585152053;-0.2816;-0.0137;-0.0382;
475058605199976;-0.1741;0.0327;-0.0657;
475058625153130;0.1063;-0.0296;0.0607;
475058645150861;0.1356;-0.1212;0.2025;
475058665157822;-0.1283;-0.0724;0.0937;
475058685162669;-0.1362;0.0498;-0.0175;
475058705175976;0.0763;-0.0015;0.0161;
475058725147515;0.0757;-0.0962;0.1194;
475058745150245;-0.0758;-0.0345;-0.0034;
475058765153515;-0.0697;0.0474;-0.0822;
475058785350130;0.0666;-0.0479;0.0424;
475058805458322;-0.0513;-0.0711;0.0143;
475058825171361;-0.0177;0.0119;-0.0584;
475058845172207;0.0024;0.0223;-0.0511;
475058865213361;-0.0214;-0.0259;-0.0181;
475058885226592;0.0421;-0.0607;0.0400;
475058905157822;0.0489;-0.0381;-0.0297;
475058925216399;-0.3054;-0.0259;-0.0688;
475058945217938;0.3140;-0.0693;0.0070;
475058965219784;0.1973;-0.0253;-0.1518;
475058985223053;-0.6469;0.2288;-0.2850;
475059005220899;-0.3421;0.0633;-0.1213;
475059025222168;0.3378;-0.1169;0.0852;
475059045144938;-0.1466;-0.0381;-0.0688;
475059065221591;0.1637;-0.0113;0.0387;
475059085222130;0.0788;-0.0363;-0.0730;
475059105236630;-0.0000;-0.0241;0.0290;
475059125225822;0.1442;-0.1169;0.1536;
475059145218168;0.2058;-0.0644;0.0137;
475059165167284;-0.1081;0.0236;0.0601;
475059185224053;-0.0379;-0.0833;0.0656;
475059205221168;0.2260;-0.0473;0.1805;
475059225240822;0.0336;-0.0497;0.0650;
475059245237861;-0.1142;-0.0162;0.0571;
475059265148745;0.0024;-0.0333;0.0491;
475059285398014;0.0745;-0.0143;0.0638;
475059305145630;-0.0770;-0.0326;-0.0236;
475059325149437;-0.0642;0.0022;0.0216;
475059345220899;-0.0519;-0.0443;-0.0028;
475059365223437;-0.0238;-0.0290;-0.0321;
475059385239322;-0.0452;0.0254;-0.0645;
475059405236745;-0.0751;-0.0088;-0.0724;
475059425233437;-0.0299;-0.0400;0.0009;
475059445236745;0.0440;-0.0235;-0.0242;
475059465233937;-0.0470;0.0101;-0.0651;
475059485236130;-0.0709;-0.0082;-0.0724;
475059505245783;0.0861;-0.0149;-0.0077;
475059525220476;0.0269;0.0028;-0.0449;
475059545223668;-0.0232;0.0040;-0.0535;
475059565145706;-0.0183;-0.0394;-0.0272;
475059585148360;0.0806;-0.0265;0.0051;
475059605167553;0.0116;-0.0088;-0.0095;
475059625161091;-0.0965;-0.0229;-0.0480;
475059645219553;0.0226;-0.0216;0.0247;
475059665231783;0.1069;-0.0345;0.0400;
475059685160014;-0.0452;-0.0388;-0.0016;
475059705231668;-0.0758;-0.0162;-0.0168;
475059725158552;0.0782;-0.0204;0.0510;
475059745429552;0.0708;-0.0614;0.0540;
475059765147629;-0.0758;-0.0559;0.0058;
475059785149629;-0.1045;-0.0168;-0.0315;
475059805157437;0.0195;-0.0314;0.0461;
475059825133975;0.1099;-0.0436;0.0510;
475059845139745;-0.0617;-0.0278;0.0284;
475059865174168;-0.1564;-0.0253;-0.0559;
475059885176514;0.0495;-0.0137;0.0302;
475059905173360;0.1154;-0.0357;0.0167;
475059925177360;-0.0483;-0.0204;-0.0077;
475059945172206;-0.1460;-0.0320;-0.0474;
475059965218552;0.0183;-0.0229;0.0131;
475059985224552;0.1374;-0.0473;0.0277;
475060005226591;-0.0147;-0.0436;0.0094;
475060025242745;0.0440;-0.0076;-0.0187;
475060045240168;-0.0984;-0.0589;-0.0401;
475060065235360;-0.0916;-0.0693;-0.0065;
475060085228168;0.0592;-0.0546;-0.0278;
475060105243206;0.0898;-0.0113;-0.0156;
475060125170860;0.0354;-0.0302;-0.0291;
475060145227783;-0.1161;-0.0443;-0.0199;
475060165223744;-0.1045;-0.0528;-0.0327;
475060185215475;0.0293;-0.0351;0.0247;
475060205217360;0.1765;-0.0314;-0.0089;
475060225218744;0.0550;-0.0314;0.0253;
475060245222552;-0.1149;-0.0510;-0.0425;
475060265223514;0.0586;-0.0681;0.0345;
475060285233783;0.0085;-0.0669;0.0229;
475060305228283;-0.0904;-0.0595;-0.0333;
475060325236821;-0.1179;-0.0724;-0.0016;
475060345238052;0.0214;-0.0730;0.0174;
475060365202475;0.1179;-0.0656;0.0015;
475060385193937;0.0886;-0.0632;0.0375;
475060405195244;-0.0189;-0.0724;0.0143;
475060425161437;-0.0189;-0.0424;-0.0052;
475060445229090;-0.0116;-0.0632;-0.0388;
475060465229206;-0.0776;-0.0815;0.0088;
475060485227321;-0.0806;-0.1121;0.0192;
475060505234013;0.0452;-0.0937;-0.0278;
475060525233283;-0.0238;-0.0766;-0.0272;
475060545214206;-0.0727;-0.1047;0.0149;
475060565231283;-0.0501;-0.1218;-0.0077;
475060585236821;0.0629;-0.0833;-0.0278;
475060605255398;0.0660;-0.1145;0.0131;
475060625232975;0.0104;-0.1359;0.0485;
475060645226283;-0.0477;-0.1231;-0.0022;
475060665237283;0.0171;-0.0833;-0.0352;
475060685234321;0.0043;-0.0742;-0.0364;
475060705227090;-0.0220;-0.0986;0.0204;
475060725142706;-0.0483;-0.1072;0.0119;
475060745331283;0.0012;-0.1023;0.0143;
475060765469975;0.0275;-0.1316;-0.0095;
475060785154513;-0.0018;-0.1145;-0.0285;
475060805213013;0.0238;-0.1261;-0.0419;
475060825189475;-0.0049;-0.1701;0.0448;
475060845186475;0.0519;-0.1573;-0.0144;
475060865188782;-0.0128;-0.0986;-0.0614;
475060885189398;0.0189;-0.1340;-0.0315;
475060905187205;0.0256;-0.1542;0.0320;
475060925187667;0.0116;-0.1261;-0.0682;
475060945193013;-0.0037;-0.0925;-0.0346;
475060965180090;0.0544;-0.1469;0.0076;
475060985224475;-0.0006;-0.1353;0.0216;
475061005233859;0.0104;-0.1041;-0.0370;
475061025235205;0.0354;-0.1072;-0.0217;
475061045243359;0.0085;-0.1347;-0.0071;
475061065231667;0.0348;-0.1817;0.0351;
475061085225398;-0.0104;-0.1579;0.0149;
475061105237436;0.0214;-0.1139;-0.0767;
475061125240667;0.0489;-0.1182;-0.0120;
475061145142821;0.0318;-0.1432;0.0045;
475061165151128;-0.0147;-0.1121;-0.0052;
475061185146590;0.0128;-0.0852;-0.0663;
475061205237359;0.0140;-0.0516;-0.0291;
475061225219898;-0.0098;-0.1224;0.0149;
475061245202513;-0.0287;-0.1231;-0.0071;
475061265205628;0.0043;-0.0736;-0.0419;
475061285134974;0.0220;-0.0974;-0.0028;
475061305151282;0.0085;-0.1176;0.0064;
475061325220744;0.0116;-0.1182;0.0033;
475061345229859;0.0318;-0.1072;-0.0376;
475061365220282;-0.0513;-0.1114;-0.0181;
475061385227705;-0.0037;-0.1304;-0.0022;
475061405222090;0.0134;-0.0827;-0.0022;
475061425221551;-0.0183;-0.0711;-0.0217;
475061445233051;-0.0183;-0.1023;-0.0156;
475061465232282;-0.0183;-0.1188;-0.0181;
475061485230551;0.0043;-0.1023;-0.0168;
475061505226513;-0.0031;-0.0791;-0.0407;
475061525231359;-0.0018;-0.1292;0.0082;
475061545253782;-0.0165;-0.1017;0.0015;
475061565234667;0.0110;-0.0669;-0.0388;
475061585227705;-0.0269;-0.0791;-0.0101;
475061605232013;0.0226;-0.1334;0.0149;
475061625219282;-0.0080;-0.1005;-0.0254;
475061645219743;-0.0544;-0.0669;-0.0511;
475061665223205;0.0171;-0.0669;-0.0126;
475061685220974;0.0012;-0.0858;0.0015;
475061705244974;-0.0055;-0.1157;-0.0083;
475061725220936;-0.0281;-0.0980;-0.0059;
475061745174782;-0.0275;-0.0840;-0.0028;
475061765159513;0.0580;-0.0748;-0.0468;
475061786676013;0.0012;-0.0388;-0.0547;
475061806157128;-0.0489;-0.0840;0.0027;
475061825139089;-0.0202;-0.1047;0.0058;
475061845127089;0.0531;-0.0711;-0.0291;
475061865171089;0.0195;-0.0595;-0.0193;
475061885169782;0.0067;-0.1047;-0.0034;
475061905171628;0.0250;-0.0760;0.0051;
475061925171205;0.0336;-0.0235;-0.0590;
475061945174397;0.0299;-0.0632;0.0009;
475061965124051;-0.0642;-0.0791;-0.0120;
475061985170089;-0.0293;-0.0601;0.0106;
475062005218474;-0.0489;-0.0724;-0.0364;
475062025222512;0.0495;-0.0571;-0.0297;
475062045220782;-0.0440;-0.0504;-0.0297;
475062065227628;-0.0434;-0.0662;-0.0028;
475062085222743;-0.0049;-0.0895;0.0418;
475062105221089;0.0409;-0.0601;-0.0431;
475062125223282;-0.0214;-0.0351;-0.0034;
475062145222705;-0.0593;-0.0821;-0.0004;
475062165148012;-0.0477;-0.0992;0.0363;
475062185148589;-0.0031;-0.0693;-0.0352;
475062205219166;-0.0593;-0.0186;-0.0871;
475062225220897;-0.0635;-0.0577;-0.0077;
475062245220743;-0.0293;-0.0986;0.0455;
475062265224820;-0.0031;-0.0815;-0.0120;
475062285220858;-0.0196;-0.0314;-0.0578;
475062305232512;-0.1527;-0.0412;-0.0150;
475062325232474;-0.0275;-0.0809;-0.0004;
475062345233128;0.0782;-0.0681;-0.0040;
475062365225243;-0.0202;-0.0620;-0.0138;
475062385154243;-0.1106;-0.0247;-0.0333;
475062405147820;-0.0538;-0.0730;0.0375;
475062425151127;0.0849;-0.0748;0.0058;
475062445166627;-0.0165;-0.0192;-0.0364;
475062465232512;-0.1087;0.0010;-0.0645;
475062485233089;0.0434;-0.0491;0.0119;
475062505229281;0.0794;-0.0876;0.0051;
475062525145666;-0.0416;0.0126;-0.0480;
475062545200358;-0.0648;-0.0320;-0.0437;
475062565152050;0.1020;-0.0504;0.0265;
475062585151897;0.0818;-0.0589;-0.0034;
475062605157973;-0.0269;-0.0357;-0.0101;
475062625151127;-0.0458;-0.0174;-0.0101;
475062645145589;0.0763;-0.0223;-0.0162;
475062665147627;0.0495;-0.0155;-0.0175;
475062685150512;-0.0806;-0.0430;0.0119;
475062705181127;-0.0416;-0.0302;0.0064;
475062725224973;-0.0361;-0.0015;-0.0309;
475062745246012;0.0122;0.0119;-0.0431;
475062765152820;-0.0990;-0.0259;0.0204;
475062785167704;0.0110;-0.0131;-0.0113;
475062805145704;0.0403;0.0119;-0.0144;
475062825137743;-0.0525;-0.0204;0.0015;
475062845182127;-0.0080;-0.0278;0.0387;
475062865171204;0.1118;-0.0180;0.0070;
475062885170858;0.0922;0.0291;-0.0266;
475062905172896;0.0256;-0.0003;-0.0181;
475062925226166;-0.0018;-0.0467;0.1023;
475062945232512;0.0996;-0.0394;-0.0199;
475062965160204;0.1735;0.0352;-0.0486;
475062985246666;0.0605;-0.0094;0.0003;
475063005249204;0.0379;-0.0467;0.0620;
475063025222089;0.0757;0.0248;-0.0504;
475063045223012;0.0458;0.0174;-0.0223;
475063065220358;-0.0733;-0.0516;0.0540;
475063085222704;-0.0354;-0.0357;0.0027;
475063105149627;0.1075;0.0437;-0.0431;
475063125227512;0.0763;0.0333;-0.0523;
475063145229512;0.0092;-0.0174;0.0632;
475063165242819;-0.0012;-0.0607;0.0461;
475063185224012;0.0489;-0.0607;-0.0132;
475063205223588;-0.0318;0.0413;-0.0523;
475063225222204;-0.0116;-0.0412;0.0571;
475063245218935;0.0110;-0.0864;0.0931;
475063265225435;-0.0416;0.0468;-0.1250;
475063285227473;-0.0562;0.0394;-0.0431;
475063305227165;0.0061;-0.0681;0.0522;
475063325234665;0.0470;-0.0418;0.0247;
475063345228934;0.0403;0.0284;-0.0645;
475063365234550;0.0531;0.0272;-0.0107;
475063385224819;0.0849;-0.0229;0.0210;
475063405149358;0.0391;0.0058;0.0143;
475063425234896;-0.0611;0.0193;-0.0346;
475063445223473;-0.0684;-0.0284;0.0345;
475063465162742;-0.0153;-0.0302;-0.0004;
475063485218742;-0.0031;0.0028;-0.0504;
475063505232857;-0.0635;-0.0064;0.0119;
475063525234934;-0.0006;-0.0210;0.0229;
475063545234127;0.0189;0.0028;-0.0456;
475063565230088;-0.0672;-0.0125;0.0094;
475063585230050;-0.0880;-0.0528;0.0161;
475063605225780;0.0409;-0.0027;-0.0523;
475063625226704;0.0397;0.0150;-0.0083;
475063645221896;0.0250;-0.0198;-0.0358;
475063665221088;-0.0275;-0.0381;0.0784;
475063685221511;0.0214;-0.0192;-0.0352;
475063705234088;0.0611;0.0413;-0.0236;
475063725240357;0.0177;-0.0186;0.0106;
475063745167011;-0.0147;-0.0510;0.0400;
475063765159319;0.0562;0.0229;-0.0504;
475063785283742;-0.0031;0.0113;-0.0419;
475063805140780;-0.0031;-0.0064;0.0204;
475063825144165;0.0037;-0.0210;0.0143;
475063847602896;0.0134;-0.0094;0.0235;
475063865215703;-0.0348;0.0168;-0.0480;
475063885175934;-0.0507;0.0260;-0.0004;
475063905220549;0.0030;-0.0278;0.0131;
475063925222473;0.0146;-0.0516;0.0650;
475063945222588;0.0391;-0.0675;-0.0077;
475063965230742;-0.0385;0.0181;-0.0175;
475063985256896;0.0696;0.0113;-0.0700;
475064005145626;-0.0238;-0.0278;0.0222;
475064025222242;-0.0727;-0.0149;0.0210;
475064045149434;0.0183;-0.0033;-0.0089;
475064065225780;0.1087;0.0003;0.0015;
475064085226088;-0.0275;-0.0143;0.0021;
475064105228472;-0.0892;-0.0088;-0.0052;
475064125228511;-0.0153;-0.0137;0.0039;
475064145227626;0.0770;-0.0100;-0.0095;
475064165228242;-0.0080;-0.0137;0.0009;
475064185225780;-0.0929;-0.0039;-0.0132;
475064205228088;0.0782;-0.0027;0.0076;
475064225217742;0.1918;-0.0180;-0.0113;
475064245222434;-0.0470;0.0071;0.0100;
475064265227165;-0.0128;-0.0241;-0.0077;
475064285228203;0.1460;-0.0125;-0.0181;
475064305229703;0.1014;-0.0033;-0.0333;
475064325227665;-0.0312;-0.0210;0.0125;
