Sensor: LSM6DSL Accelerometer
Vendor: STM
TimestampAcc [ns]; AccX [m/s^2]; AccY [m/s^2]; AccZ [m/s^2]
475003541038587;1.3431;9.4092;1.4617;
475003561025166;-0.7985;9.0597;1.5131;
475003581029283;-2.2841;9.9503;0.2861;
475003601720399;1.9034;9.6247;1.2498;
475003621662630;0.8499;10.6231;1.1540;
475003641335880;-1.8735;10.4267;0.8009;
475003661169832;0.6033;8.6706;1.2881;
475003681084289;0.9756;9.8222;2.7533;
475003701046075;-1.0798;10.8122;0.6201;
475003721022160;-1.4617;10.8781;1.0127;
475003741016472;0.1317;9.8665;2.4744;
475003761142436;0.2562;9.6810;2.0147;
475003781175629;0.3208;10.5500;1.3623;
475003801088437;-0.3711;10.1382;0.7266;
475003821041534;-0.5890;9.7061;1.3360;
475003841038198;1.3048;11.5640;-0.5064;
475003861022664;-2.0865;9.6259;1.3815;
475003881007532;-2.6779;9.3553;0.6045;
475003901000543;1.3443;9.7791;0.5578;
475003921027183;0.9972;9.8162;0.2239;
475003941047522;-0.6309;10.1957;0.5926;
475003961060942;-0.1664;10.2436;1.2953;
475003981068459;0.5794;10.9882;1.1337;
475004001042737;-0.1592;9.6403;1.1540;
475004021026914;0.1939;8.7508;1.3874;
475004041026291;0.0634;9.8390;0.9768;
475004061025634;0.7578;10.9044;0.9433;
475004081021844;0.8918;10.5872;0.3388;
475004101025583;-0.6979;8.2301;2.1967;
475004121052972;0.8080;9.2237;1.1839;
475004141031570;1.7992;10.1825;-0.1257;
475004161060196;1.0810;10.6745;-0.3711;
475004181107317;-1.5383;11.0121;0.2239;
475004201108839;0.7590;9.5732;0.6488;
475004221064715;2.2960;8.1630;1.7693;
475004241073576;1.9369;9.8916;0.8128;
475004261045180;0.9541;10.9487;0.2873;
475004281069790;-0.3388;10.0209;0.6213;
475004301833383;0.6177;8.4156;1.4413;
475004321429141;1.3587;8.9016;2.1129;
475004341236232;0.9074;9.9814;-1.2031;
475004361129585;0.5770;10.2496;-0.4872;
475004381100338;-0.4190;10.4339;-0.8595;
475004401107792;0.3100;10.3166;-1.0618;
475004421089576;2.7569;8.6383;2.5881;
475004441070834;0.7099;9.7408;-0.7769;
475004461060059;0.3519;10.6745;-2.0435;
475004481115825;-0.9038;9.7516;-0.8116;
475004501150670;0.6464;8.7029;1.7454;
475004521159535;0.7913;10.1993;0.6333;
475004541124775;0.5926;10.9583;-2.6073;
475004561098837;-1.2426;9.9168;-0.4190;
475004581098349;-0.0754;9.3218;1.5790;
475004601101105;1.2582;10.9475;-2.2613;
475004621136387;0.9325;10.0784;-0.5219;
475004641158489;-0.6165;9.3027;0.3065;
475004661131579;-0.3328;9.0597;0.1820;
475004681142335;1.1744;10.1263;-0.4357;
475004701161771;0.6788;10.6841;-0.7841;
475004721102297;-0.2143;9.9000;-0.0120;
475004741101002;0.1329;9.5122;-1.2354;
475004761094412;1.6975;10.2699;-0.9038;
475004781097155;1.5658;10.9044;-0.9014;
475004801106277;-0.0132;9.7396;-0.4968;
475004821144338;-0.2801;9.6965;1.3527;
475004841163465;1.7011;11.0660;0.1508;
475004861095432;1.0558;10.4962;-0.0527;
475004881094358;0.2717;9.8378;1.2498;
475004901134052;1.4006;10.5022;-0.4214;
475004921125552;1.7190;11.2037;-1.2234;
475004941154168;1.3300;10.4567;0.6895;
475004961125687;0.9266;10.2843;0.9816;
475004981072851;0.9062;10.7428;-0.2969;
475005001126452;1.3791;10.5417;-0.5315;
475005021107175;1.6352;9.9108;-0.2502;
475005041097268;1.4952;9.6355;0.9936;
475005061098276;1.1229;10.1945;-0.5195;
475005081112068;1.1432;10.2388;-1.0331;
475005101134676;1.5395;9.7624;-0.3017;
475005121121710;1.1827;9.8749;-1.0846;
475005141072727;1.4808;10.4220;-1.0690;
475005161077274;1.7442;10.6578;-0.5219;
475005181122875;1.2929;9.8641;-0.4573;
475005201147521;1.3815;9.3781;0.9816;
475005221119383;1.6747;9.8940;0.0431;
475005241109295;0.4393;10.3190;-1.1241;
475005261104020;1.4389;9.9443;0.3903;
475005281097652;1.4377;9.3877;1.3767;
475005301109025;1.2917;10.0054;-0.2801;
475005321063981;0.9457;10.0880;-0.8320;
475005341041267;1.4102;9.1997;0.1999;
475005361028833;1.9848;9.4966;-0.5112;
475005381026597;1.5598;9.9048;-0.7745;
475005401017517;0.9876;9.9156;-0.4812;
475005421036400;1.7394;9.2715;0.6165;
475005441036726;1.7765;9.0273;-0.1257;
475005461037928;1.3611;9.9742;0.2969;
475005481039125;1.0391;10.3310;-0.0120;
475005501072377;1.6316;9.6319;-0.4250;
475005521095118;2.3523;9.3290;-0.1425;
475005541060354;2.0195;9.8605;1.4760;
475005561067492;0.9038;10.6530;0.0802;
475005581043599;2.0004;9.9311;0.2155;
475005601027095;1.7454;9.7049;0.2741;
475005621049958;1.5646;9.5888;-0.7398;
475005641032447;1.0810;10.2460;0.2945;
475005661074577;2.3990;11.0468;-0.7087;
475005681050661;2.3331;10.0592;-0.3148;
475005701087972;1.0798;9.0644;0.5902;
475005721054108;1.0690;10.0987;0.6536;
475005741074695;2.0279;11.2707;-0.8116;
475005761046181;2.7114;10.4986;-0.4729;
475005781135424;1.4126;9.4367;0.6907;
475005801074123;0.9194;10.1646;-0.0323;
475005821055126;1.0116;11.1690;-0.3208;
475005841021397;2.2434;11.0456;-1.7813;
475005861047936;0.8248;8.8645;2.4756;
475005881036802;0.1700;9.8916;0.7470;
475005901029754;1.8543;11.1678;-1.5754;
475005921024134;3.4010;11.0516;-1.4150;
475005941055843;0.8595;9.2440;0.9266;
475005961076851;-0.1556;9.3063;1.2139;
475005981063221;1.5754;11.3282;-1.9130;
475006001036117;2.0937;11.0947;-1.5574;
475006021056046;2.5211;10.0114;0.8224;
475006041062126;-0.7242;8.2959;1.9453;
475006061042397;0.7554;10.4806;-1.2617;
475006081064455;2.1452;10.6219;-1.5227;
475006101107003;1.6472;8.7580;1.0175;
475006121132758;0.6644;9.1997;0.0778;
475006141110116;1.5335;10.8876;-2.9628;
475006161104295;1.9944;10.5967;-0.3699;
475006181061096;1.6281;9.6379;1.6125;
475006201102035;1.4629;9.8509;0.2095;
475006221080140;0.9529;10.3944;-1.3671;
475006241049019;1.1660;10.0449;-0.4178;
475006261027016;1.9094;10.0233;0.3555;
475006281014476;2.3200;10.6494;0.0371;
475006301027129;0.3867;11.0696;-0.4992;
475006321035013;0.5267;9.9180;-0.8140;
475006341044359;2.4708;10.3022;1.6185;
475006361089571;2.0710;11.7304;-1.4904;
475006381089907;0.7913;10.6087;-0.8942;
475006401087960;0.6931;9.2153;1.2701;
475006421126871;1.7406;9.5960;0.6285;
475006441148538;1.4772;11.1235;-1.6089;
475006461164352;0.7123;11.1294;-1.9034;
475006481128817;1.3862;10.1682;-0.7506;
475006501158434;1.8364;8.3905;0.5686;
475006521135358;0.9780;9.8174;-1.0487;
475006541156532;1.2055;11.1989;-1.5610;
475006561168080;0.9445;9.3278;0.3807;
475006581100047;0.5770;9.8306;0.5303;
475006601105088;0.2263;11.5496;-2.0782;
475006621142012;1.9022;11.2839;-0.0994;
475006641081936;2.7641;8.9304;-0.3448;
475006661057686;-0.1125;8.8825;0.5626;
475006681041080;-0.2155;10.4734;0.4441;
475006701076008;1.6735;10.9750;-2.5331;
475006723284991;2.6671;10.1849;1.0379;
475006742152406;1.1768;9.6594;0.5435;
475006761588171;0.4717;10.1766;-0.1006;
475006781317746;2.2494;11.2743;-1.7095;
475006801159091;1.9944;10.6650;-0.7422;
475006821103667;0.2322;7.9559;2.8599;
475006841068686;1.9345;10.7188;0.6608;
475006861074638;2.5642;11.8238;0.2047;
475006881092614;1.4401;8.7161;3.7505;
475006901097660;0.0886;8.7628;3.6356;
475006921105336;2.7342;12.2799;0.5842;
475006941141444;2.0375;12.5049;-2.3475;
475006961160709;0.9218;8.9687;0.9146;
475006981132476;1.4186;7.3538;3.5937;
475007001120552;3.8906;11.2887;0.1353;
475007021145898;1.3898;12.4786;-1.7657;
475007041078513;0.1975;10.1873;2.2769;
475007061056840;2.4349;8.1080;4.7250;
475007081040138;3.1460;12.2296;-0.9577;
475007101037498;1.8136;11.4072;-0.4657;
475007121083909;-0.1867;8.3007;3.7062;
475007141139153;2.9461;9.3087;2.9521;
475007161115083;3.3722;11.9746;-1.8615;
475007181073875;0.8882;10.5010;-1.0666;
475007201090444;1.6400;7.7740;2.1368;
475007221101978;2.9688;8.8406;-0.7638;
475007241102803;2.7066;10.9571;-1.2570;
475007261106639;1.1648;9.9970;1.6448;
475007281104403;0.0922;9.1291;1.9321;
475007301107919;2.8204;8.9148;0.2837;
475007321104350;2.7210;9.8557;-0.9972;
475007341104239;0.2717;9.3170;0.0970;
475007361109530;0.1724;9.7085;0.2263;
475007381108964;2.2338;10.8864;0.2334;
475007401103181;3.0107;10.3274;-1.1863;
475007421103424;0.6416;8.9531;-0.0575;
475007441136103;0.8691;9.3757;-0.1844;
475007461110000;2.7964;10.6734;-1.0259;
475007481109583;1.8352;10.4830;-2.2757;
475007501102952;0.2861;9.4846;-1.2210;
475007521105348;1.3168;9.8485;-0.0048;
475007541071719;2.8216;10.4232;0.1999;
475007561050481;2.6635;10.5189;0.8344;
475007581042804;0.5806;10.1538;1.2570;
475007601023235;1.7047;9.7839;-0.0838;
475007621066162;1.4784;10.5692;-0.2981;
475007641045876;0.8691;11.0193;-0.4465;
475007661057310;1.9501;11.4311;-1.1217;
475007681040527;2.5498;9.8485;-0.5602;
475007701026250;2.0722;8.7329;0.8224;
475007721030496;0.7853;9.5960;0.3735;
475007741021408;2.2338;11.9662;-1.7382;
475007761035287;2.1572;10.9068;-1.5467;
475007781022342;0.7913;8.4120;-0.1748;
475007801022773;1.3096;8.5653;-0.2789;
475007821012181;3.0239;10.8685;-0.5555;
475007841031673;0.9457;9.7133;1.0044;
475007861056650;1.8088;9.2093;0.3136;
475007881028062;2.1811;9.9922;-0.8679;
475007901015114;2.4169;10.7667;-1.2342;
475007921007698;2.1500;9.9886;-0.0802;
475007941049470;1.9860;9.8258;0.9134;
475007961060145;0.9409;10.1502;0.7051;
475007981061059;2.2685;10.3920;-0.3759;
475008001054112;2.4469;10.0916;0.2071;
475008021026697;2.1225;10.2268;-0.1808;
475008041056720;2.2649;10.4531;-0.2322;
475008061050885;2.6731;10.0724;0.1293;
475008081046795;1.7190;10.7955;-0.4429;
475008101044692;2.0339;10.9092;0.1736;
475008121079179;2.8695;11.1761;0.7566;
475008141091903;1.9058;11.1055;0.3759;
475008161103227;2.0339;10.7093;0.9673;
475008181124139;2.2003;11.1953;0.6261;
475008201110460;2.1536;11.4491;1.4365;
475008221105486;1.5706;11.7974;1.7382;
475008241115768;1.2450;11.5089;1.7238;
475008261126178;3.2561;11.2743;0.8296;
475008281142480;2.5199;10.9918;0.7769;
475008301106419;1.4545;10.9463;0.6057;
475008321108562;2.7845;11.3042;-1.6652;
475008341110325;3.0622;10.9642;-1.3958;
475008361113149;1.0116;10.9403;-0.4513;
475008381114330;0.7039;9.5529;-0.3124;
475008401111498;1.9345;9.4942;-1.6747;
475008421125216;3.1316;11.5281;0.6069;
475008441076922;1.2989;10.7907;-0.3089;
475008461102390;1.2989;9.6630;-1.2330;
475008481067701;1.4090;9.0369;-0.3938;
475008501042183;3.7948;9.4092;-0.7997;
475008521064847;3.0981;9.5804;-0.2873;
475008541058718;1.0798;11.3234;-0.6117;
475008561050538;0.4908;9.7516;0.0706;
475008581044794;4.4508;7.9188;-1.3695;
475008601052134;3.1280;9.4786;-5.4839;
475008621031323;-2.5235;6.6020;1.8435;
475008641038302;-0.9804;7.9045;2.2733;
475008661037234;5.9975;12.3409;-1.3970;
475008681034815;6.6415;9.5768;-7.3275;
475008701024452;-3.0718;4.9512;1.9956;
475008721039943;-3.0765;7.3574;1.5622;
475008741025323;4.8949;12.5013;-0.5770;
475008761017283;6.6930;12.8940;-2.1308;
475008781028743;-1.8627;7.4795;1.0199;
475008801034166;-2.1751;4.7561;4.6783;
475008821068762;9.0405;16.1788;-5.4827;
475008841099714;-0.4118;11.0313;-2.2529;
475008861058651;-4.3574;6.4236;6.6978;
475008881083062;2.8323;11.1881;0.9888;
475008901084652;4.6412;14.3437;-2.1201;
475008921097062;1.2941;11.3737;-0.7135;
475008941134094;0.0814;8.2528;1.1325;
475008961115707;2.7773;10.7021;-0.4800;
475008981109705;3.4273;12.6162;-4.4400;
475009001105743;1.0127;10.9654;-0.5423;
475009021100223;0.3160;9.2285;1.4425;
475009041096406;1.8052;10.1921;0.2957;
475009061159497;1.8352;11.3629;-2.6133;
475009081127966;0.4597;9.4152;-0.7661;
475009101109508;0.9218;8.9280;0.5028;
475009121103106;2.1823;10.2472;-0.6393;
475009141097886;1.8567;11.2803;-2.5606;
475009161098256;0.5124;9.2823;-0.4118;
475009181098941;0.2023;8.3869;0.0802;
475009201099188;1.4976;9.2668;0.3280;
475009221100965;0.8990;11.3701;-2.2661;
475009241102546;1.2570;10.2723;-1.0977;
475009261102202;1.1217;8.9088;2.3020;
475009281097722;1.2330;9.4332;0.4238;
475009301093309;1.3994;10.5896;-2.9401;
475009321137122;1.5838;9.8186;1.0989;
475009341112470;0.9349;9.3721;1.2713;
475009361104375;1.3012;10.8924;-0.3077;
475009381105270;1.9561;10.8110;-0.5267;
475009401100564;2.1991;9.6403;1.2282;
475009421099884;1.7466;10.0042;1.1576;
475009441100274;1.1432;10.9798;-0.4597;
475009461105431;1.6029;10.5177;-0.3867;
475009481097144;2.6659;9.5493;1.1839;
475009501092462;3.3734;10.4291;-0.4717;
475009521127083;1.7609;10.3753;-0.9553;
475009541146739;1.3348;9.5433;-0.0754;
475009561113471;2.6025;9.2308;0.6812;
475009581097395;2.5438;10.1299;-1.7561;
475009601095491;1.5179;9.5014;-2.3224;
475009621136559;2.6600;8.8322;-0.0958;
475009641116458;2.9377;9.3422;-0.3687;
475009661111234;2.2446;10.1730;-2.5139;
475009681083122;1.3324;9.4774;-1.1827;
475009701077913;1.6101;8.3761;0.0515;
475009721051885;2.8982;9.5660;-1.7346;
475009741083717;2.2877;9.7731;-1.1277;
475009761043460;1.5060;8.9890;-1.4856;
475009781065485;2.0638;9.0034;-0.3579;
475009801042632;2.9365;10.1502;-1.2031;
475009821044091;0.7973;11.0289;1.2186;
475009841064089;0.7829;9.3925;1.4257;
475009861047434;3.0861;10.1263;0.4381;
475009881068742;2.8551;10.7440;-0.8511;
475009901061049;0.7434;10.8960;0.3448;
475009921053934;1.0175;10.6925;0.6261;
475009941069453;3.7912;10.2460;0.2179;
475009961075520;2.9018;10.5237;2.7366;
475009981082092;-0.5279;10.9176;2.4301;
475010001088167;-0.6464;10.2508;-0.6105;
475010021100262;4.6364;8.5078;0.3747;
475010041099386;6.1890;10.4603;1.6999;
475010061091564;3.0239;10.4782;-3.2860;
475010081099710;1.7657;10.0233;1.4078;
475010101100072;-0.4250;9.6055;4.6555;
475010121105387;-0.7673;11.7579;1.1863;
475010141136680;0.9936;13.0723;-5.7940;
475010161107364;4.3479;10.7141;-1.0726;
475010181096110;3.8798;7.1036;5.6563;
475010201091253;1.6568;11.9878;0.3950;
475010221134574;2.8623;16.6110;-6.3686;
475010241116850;3.3279;8.7568;-1.7861;
475010261110238;1.0415;2.9149;2.8599;
475010281119393;0.5818;13.3225;-4.1970;
475010301108548;1.3671;14.7447;-4.3562;
475010321137260;0.2298;5.8167;0.8452;
475010341108520;0.7326;5.4300;0.0096;
475010361105688;4.7274;12.0847;-3.1244;
475010381107099;3.0335;12.6079;-6.0573;
475010401108555;0.6404;6.4272;2.1416;
475010421106783;1.3360;5.4145;7.7680;
475010441105839;1.5909;12.9909;-2.1871;
475010461110425;2.5486;14.5819;-5.0338;
475010481126468;4.0091;8.0457;1.6281;
475010501116412;1.1875;5.5821;7.1156;
475010521110038;1.6364;12.2212;-2.7809;
475010541103543;2.7701;14.6645;-5.4851;
475010561102507;2.3128;7.8434;4.2353;
475010581100970;0.0634;7.6327;3.2693;
475010601099432;2.5247;13.5368;-2.6935;
475010621102779;3.6619;12.8640;-4.4891;
475010641106568;2.1105;8.3079;0.1796;
475010661109058;0.7386;7.3514;1.6305;
475010681074534;3.1783;11.5089;-3.1759;
475010701050234;3.6631;13.0077;-4.5274;
475010721145834;0.7841;9.0740;1.8783;
475010741086807;1.4162;7.5202;4.6675;
475010761053005;2.3331;10.5393;0.5279;
475010781032661;2.9820;12.7719;-2.4229;
475010801035951;1.2222;9.8821;1.0343;
475010821037481;1.2438;9.4344;1.7705;
475010841067226;2.2134;11.9387;-0.5638;
475010861052349;2.0578;11.8968;-0.4621;
475010881047122;2.2122;10.5620;0.4154;
475010901043758;0.3280;9.5972;0.2143;
475010921052672;1.3300;10.5836;-0.8416;
475010941080072;3.1747;10.7751;-0.6045;
475010961080406;2.7617;10.3777;1.0965;
475010981081593;0.1808;8.8286;2.2853;
475011001082455;1.7549;9.7384;-0.9433;
475011021087867;3.0586;10.2352;-3.5314;
475011041098823;3.1819;8.3055;0.7829;
475011061102839;0.8464;9.1997;-0.0862;
475011081106271;2.9185;10.3621;-2.2709;
475011101109679;3.4704;9.0704;-0.8978;
475011121078210;2.6779;7.6160;1.7681;
475011141092802;1.3455;10.1035;0.1389;
475011161135656;1.3108;11.4371;-2.1799;
475011181108525;3.6703;9.4894;1.5455;
475011201095883;2.5367;7.9308;1.8016;
475011221093408;1.9848;10.6111;-1.1133;
475011241093767;2.2170;11.7483;-1.1600;
475011261136850;2.8240;10.4962;0.2562;
475011281121084;2.6013;9.2141;1.7825;
475011301107605;2.2685;10.9307;-2.1679;
475011321106288;3.0622;11.4934;-1.7346;
475011341144610;3.5901;9.8857;-0.5614;
475011361155829;2.4684;8.7317;0.3962;
475011381124054;2.4313;10.6686;-2.7880;
475011401110609;2.3379;10.9295;-2.0889;
475011421102982;3.0981;9.4391;-0.2562;
475011441138342;3.5710;9.5936;-0.0467;
475011461120118;1.5191;10.4507;-2.5833;
475011481123333;1.7980;9.7516;-1.9070;
475011501089902;3.7421;8.7640;0.8643;
475011521099571;3.3172;9.7384;1.0726;
475011541107790;0.9469;10.6578;-0.8248;
475011561142688;3.1424;8.3570;-1.4605;
475011581126580;3.4165;8.1415;-0.4082;
475011601109256;2.4265;9.7887;-0.8703;
475011621099787;0.5710;10.5381;-2.1320;
475011641139129;2.7629;9.3685;-0.7673;
475011661164281;4.3144;9.1854;0.5710;
475011681136318;1.5407;10.4148;-2.0746;
475011701089125;0.0958;11.2120;-2.1859;
475011721066798;2.8060;10.2903;1.5347;
475011741308365;4.6184;10.3286;0.5818;
475011761167687;1.9190;10.7667;-0.6692;
475011781098156;0.4274;10.8433;-0.7853;
475011801077025;1.7957;10.5034;-0.4190;
475011821050190;3.6715;10.2173;-1.4629;
475011841051369;1.1791;9.9395;-1.3767;
475011861073920;1.5993;9.5373;-0.6117;
475011881083907;5.2720;10.0305;-1.6089;
475011901088574;2.4936;9.6235;-0.2251;
475011921091195;0.7817;8.4982;-1.6388;
475011941095525;1.3252;8.7736;-0.7350;
475011961091190;4.0989;9.9347;-2.4014;
475011981079792;3.6476;9.1794;-2.0638;
475012001089016;1.8830;7.7800;-0.1748;
475012021097263;0.6979;8.5018;-0.0239;
475012041137501;3.4058;10.4004;-2.4481;
475012061155717;2.4756;8.5557;1.2414;
475012081122882;1.8028;9.1506;1.0044;
475012101110157;1.7538;9.5828;0.6213;
475012121110718;2.5283;10.0293;-0.1592;
475012141077729;2.5654;9.0297;-0.2346;
475012161070792;0.9529;8.8011;0.6500;
475012181091054;1.4150;9.5026;-0.6943;
475012201115166;1.5323;10.3058;-1.8806;
475012221105261;4.0737;9.0178;-1.4281;
475012241098731;0.8380;8.6143;-1.3946;
475012261096678;0.1508;9.7576;-0.1604;
475012281100786;2.7521;11.6250;-1.2629;
475012301099397;2.0027;9.5996;1.0355;
475012321097857;0.2957;8.6048;2.3032;
475012341098625;-0.5315;10.3860;0.1233;
475012361111548;2.9449;11.6610;-1.0546;
475012381151298;2.9568;10.4818;-0.2454;
475012401116980;-0.7829;8.4767;1.0343;
475012421107879;0.1592;9.4415;0.6680;
475012441098905;2.8718;11.8070;-0.9960;
475012461088938;2.6145;11.0241;-1.8675;
475012481088281;-1.2761;7.4280;2.8192;
475012501134453;-0.8021;9.3913;0.5770;
475012521116173;3.0706;11.1306;-2.8371;
475012541098879;2.3798;10.8362;-1.8926;
475012561088328;-1.8723;7.7345;0.7973;
475012581096765;0.6345;9.8186;0.3950;
475012601057368;3.0957;12.0464;-1.2546;
475012621074188;0.7386;9.3601;-0.2406;
475012641125002;-1.2713;6.1292;1.5993;
475012661107005;2.4768;8.2384;0.1580;
475012681104603;3.2262;11.7675;-2.0889;
475012701098460;-1.7549;11.3725;0.5303;
475012721124330;-1.2139;8.0912;2.5702;
475012741074342;2.7426;8.2660;0.0706;
475012761050195;1.8771;11.2216;-3.1484;
475012781030467;-1.9908;10.8553;-0.5148;
475012801033757;0.7733;8.1954;3.7182;
475012821034748;2.9353;10.4208;0.3124;
475012841057090;-0.3819;11.6274;-2.2649;
475012861056819;-0.2274;9.9766;0.2813;
475012881080721;1.9381;9.6067;2.8730;
475012901090980;-0.0718;9.8007;1.0151;
475012921097244;-0.8272;11.4000;-1.9249;
475012941103857;0.9170;10.5297;0.0144;
475012961113337;-0.5602;9.5433;-0.3364;
475012981117404;2.8587;9.0070;1.6017;
475013001069514;-0.4920;11.4096;-1.1420;
475013021082550;-0.5567;10.8661;-1.1720;
475013041085145;0.5028;8.5126;0.1652;
475013061138961;0.5399;10.1047;-0.2933;
475013081126081;1.5275;10.6997;-2.9197;
475013101113160;-0.7518;10.1095;-1.0499;
475013121109834;-0.0862;8.6874;1.9752;
475013141108652;-0.1604;9.6929;1.0582;
475013161153580;2.2458;10.9008;-2.8060;
475013181150179;-0.8368;8.5030;-0.6740;
475013201126094;-1.1205;7.2832;2.6635;
475013221125993;0.0551;10.3441;-2.0626;
475013241117385;0.9948;11.8202;-1.9082;
475013261114274;0.5782;8.6395;-0.2550;
475013281113853;-1.3120;7.7704;1.3503;
475013301107142;1.1947;11.8752;-2.5379;
475013321147017;-1.0211;9.9647;0.7075;
475013341127493;-1.1169;7.8111;2.4253;
475013361117866;-0.6273;9.7205;-0.6261;
475013381127283;-0.1939;11.2372;-2.5762;
475013401106665;-0.4226;10.3238;-1.0666;
475013421117029;-1.5862;8.6215;2.8611;
475013441110615;-1.7609;8.6311;0.9685;
475013461109581;-0.1413;11.4670;-1.8292;
475013481111641;-0.9290;9.8964;0.0706;
475013501108036;-0.4477;8.9878;1.2929;
475013521098618;-0.6560;8.6622;0.5124;
475013541091198;-0.9637;10.2173;-0.6189;
475013561131238;-2.3296;9.1770;-0.0012;
475013581150104;-1.1061;8.8957;0.8128;
475013601118171;0.8045;9.0561;-1.4533;
475013621098840;-1.7454;9.4966;-1.5071;
475013641091886;-2.3068;9.4499;-0.6033;
475013661131735;0.2143;9.0357;-0.1389;
475013681152198;-0.2155;8.8813;0.8080;
475013701090526;-2.5558;9.8689;-0.2274;
475013728301729;0.5327;9.9180;0.3424;
475013761411470;0.5327;9.9180;0.3424;
475013781052085;-1.4222;9.8629;-0.0994;
475013801083624;-1.9680;9.6558;0.3603;
475013821004739;-0.3077;10.7260;0.5124;
475013841085778;-0.2358;9.6450;1.2426;
475013860998893;-1.3970;9.1219;0.6057;
475013881042624;-1.3336;9.8749;-0.5674;
475013901102162;-1.0894;9.7947;0.5914;
475013921043816;-0.9816;9.7707;-0.0407;
475013941093354;-1.4162;9.8497;0.0287;
475013961107239;-0.4788;9.3063;0.1664;
475013981113431;-1.3372;8.8741;0.7314;
475014001049970;-0.9852;10.2161;0.1437;
475014021029701;-1.2031;10.6279;1.1349;
475014041009239;-0.7015;9.9132;0.1568;
475014061084508;-2.2601;8.4420;1.6293;
475014081169239;-0.5076;9.2787;0.6117;
475014101180508;-1.5371;10.4088;-0.2765;
475014121098585;-2.1955;10.4866;-0.0479;
475014141113893;-1.0630;8.7700;0.1736;
475014161098316;-2.2505;8.3833;-0.3292;
475014181113162;-1.3623;10.1442;-0.8428;
475014201196585;-2.5618;10.2747;0.1125;
475014221145123;-1.8124;9.1842;1.9704;
475014241019393;-2.0135;9.4224;1.1875;
475014261106931;-2.1703;9.9383;-0.6620;
475014281116585;-1.5802;10.8146;-1.2103;
475014301116393;-1.8016;10.1873;0.4250;
475014321111777;-2.6612;9.1303;1.6795;
475014341196700;-2.2003;10.4603;-0.3867;
475014361108277;-1.6747;10.5512;-0.1856;
475014381111162;-2.5247;9.3996;0.6057;
475014401115354;-1.7394;9.7193;-0.5543;
475014421114546;-2.9341;9.9814;-1.4150;
475014441100316;-1.9309;9.4966;-1.6508;
475014461091162;-1.9824;9.1303;0.3292;
475014481115431;-2.6193;9.4559;-0.5471;
475014501116200;-1.9465;9.8282;-1.0139;
475014521108546;-2.0830;8.8454;0.1437;
475014541100662;-1.7310;9.0405;1.6041;
475014561099123;-2.9245;9.8067;-1.0044;
475014581104316;-2.0279;8.9783;0.7626;
475014601106354;-1.4868;8.9172;0.7877;
475014621112508;-2.4157;9.0668;-0.1508;
475014641111469;-2.1392;9.6462;-0.7075;
475014661103546;-0.9792;8.9399;0.2598;
475014681113508;-1.1384;9.6702;0.9972;
475014701107623;-2.0111;10.2771;-0.4752;
475014721106662;-2.1380;9.8485;-0.1963;
475014741154431;-1.3084;9.1578;1.1217;
475014761012162;-1.9405;9.9096;0.4345;
475014781070238;-2.6779;11.5221;-0.8236;
475014801005085;-2.7270;10.3669;1.6328;
475014821012431;-0.1209;8.9208;0.9002;
475014841037085;-1.2462;10.5668;-1.8914;
475014861060085;-2.2494;11.1175;-2.0339;
475014881047161;-1.6771;9.9012;0.7590;
475014901098238;-2.0051;10.5189;1.4042;
475014921054508;-1.9932;10.6662;-0.2514;
475014941043392;-1.8423;10.1215;-1.6843;
475014961093315;-1.6580;9.1877;1.1097;
475014981088508;-1.6532;10.4615;-0.9182;
475015001102354;-1.3132;10.9200;0.0599;
475015021100661;-1.3420;9.7899;0.1053;
475015041080469;-1.9692;9.2344;0.3747;
475015061084854;-1.3683;9.8785;-1.0726;
475015081093623;-0.9697;9.8749;0.3460;
475015101081815;-2.8335;9.9491;0.3543;
475015121165277;-2.9904;9.7719;-0.8978;
475015141086161;-0.0898;9.7300;-0.6081;
475015161095584;-0.5806;9.3206;-0.1760;
475015181177854;-2.8982;9.0836;0.6464;
475015201177392;-3.2406;10.0688;-0.2789;
475015221102584;-0.2071;10.0760;0.6812;
475015241102854;-0.2442;8.6694;0.4130;
475015261094392;-2.6791;8.9004;0.0168;
475015281026392;-4.1444;10.2400;-1.9501;
475015301044007;-0.8380;10.3166;0.4956;
475015321109123;-3.2573;9.2560;0.7290;
475015341142853;-3.5757;9.8306;-0.2394;
475015361049623;-1.5060;10.0688;-0.5459;
475015381048238;-0.2753;9.9802;-0.0826;
475015401189430;-2.6276;9.4236;1.6819;
475015421121661;-4.1803;9.5457;-0.3484;
475015441105853;-3.1161;10.0999;-0.6369;
475015461029276;0.4429;9.7875;-0.3508;
475015481024584;-2.2170;8.8765;1.2474;
475015501167199;-3.7493;10.1873;0.6644;
475015521078353;-2.7390;10.3082;-0.7745;
475015541081623;-1.0080;9.8222;1.2965;
475015561095084;-2.0267;9.2967;0.4094;
475015581103084;-3.7469;9.7264;-0.3831;
475015601186622;-1.8016;9.4403;0.2897;
475015621096353;-0.6752;9.4439;1.3156;
475015641099161;-2.0614;10.0305;0.0431;
475015661041469;-3.2298;10.5070;-1.9884;
475015681100661;-1.3060;8.6898;0.9014;
475015701170892;-0.9218;9.2715;1.8663;
475015721077392;-2.1392;10.8876;-0.7566;
475015741032045;-3.0550;10.9104;-0.0575;
475015761016276;-2.1512;9.3661;1.8364;
475015781031699;-1.6652;9.6079;1.3731;
475015801065430;-2.5498;10.5656;-0.8392;
475015824961392;-2.2374;9.5289;-0.3340;
475015841038968;-1.8064;9.1578;0.7901;
475015861041584;-1.8411;10.3394;-0.6620;
475015881044545;-1.7609;10.4806;-1.5850;
475015901047892;-2.1967;8.9220;0.0048;
475015921090468;-2.2482;9.4583;0.6081;
475015941037507;-2.5546;10.4651;-1.5203;
475015961074853;-2.7066;10.8074;-0.3735;
475015981048891;-1.3659;8.9399;-1.4724;
475016001052238;-1.8052;8.2624;0.1401;
475016021117891;-2.9652;9.8294;0.4322;
475016041192622;-2.6073;10.7703;-1.7214;
475016061118007;-1.2773;9.3865;0.7219;
475016081102007;-2.9700;8.4120;1.1289;
475016101180314;-1.8100;10.3645;0.0431;
475016121182276;-1.3252;11.3533;-1.0391;
475016141113737;-2.3655;9.1913;1.9525;
475016161114930;-3.2441;8.8921;1.8998;
475016181106891;-2.2721;10.5093;-0.2167;
475016201117584;-0.6668;10.5860;0.2346;
475016221075276;-1.9393;8.5892;1.5347;
475016241025160;-2.5642;8.9854;2.8778;
475016261060007;-2.2218;10.4052;-1.0163;
475016281052084;-0.5674;9.8892;-1.6041;
475016301028391;-2.2386;7.6878;1.1289;
475016321003122;-2.9102;9.6929;0.4322;
475016341074622;-0.8763;11.3521;-2.2601;
475016361062199;-1.1875;8.9196;1.5275;
475016381063199;-3.1053;8.2935;3.4465;
475016401128199;-1.2282;10.5644;-0.1580;
475016421069622;-0.1472;10.9152;-2.2290;
475016441087276;-1.8124;8.1499;1.3922;
475016461092506;-3.5422;7.9428;1.9728;
475016481051199;-2.1931;11.0445;-2.4014;
475016501073660;-0.6907;11.3198;-2.1332;
475016521070160;-1.1875;8.0924;0.3364;
475016540992430;-2.2529;8.1104;1.5311;
475016561088006;-1.6891;12.9742;-1.5455;
475016581055506;-1.7430;10.9247;0.7326;
475016601066429;-3.3674;7.7979;2.5259;
475016621148237;-1.3671;8.3665;1.4904;
475016641086660;-0.6979;10.8804;-1.3048;
475016661078814;-1.2450;10.2627;1.1205;
475016681049891;-2.6647;9.2512;1.5443;
475016701079122;-2.1344;9.7109;0.5926;
475016721093391;-0.9577;11.3066;-2.4361;
475016741386506;-1.7741;10.2687;-0.5267;
475016761005622;-3.2513;9.2308;0.7051;
475016781095583;-0.6656;9.4296;1.7873;
475016801009929;-1.1923;11.3306;-0.7171;
475016821029429;-1.5550;9.4810;0.3819;
475016840991275;-1.2809;8.2073;1.7035;
475016861090660;-0.6560;9.9335;-0.3005;
475016880997160;-2.8024;11.8154;-1.6352;
475016901077891;-1.0271;10.2029;-0.3472;
475016921127545;-0.5734;8.8777;1.4808;
475016941042391;-1.9585;10.0760;-0.2933;
475016961074006;-2.0698;11.3102;-0.7841;
475016981070314;-0.4896;10.5548;1.9920;
475017001081621;-2.5235;8.5150;4.3120;
475017021142621;-2.5558;8.8717;1.4940;
475017040997275;0.2119;10.4651;-1.3168;
475017061046198;-1.9070;10.4842;0.0778;
475017081052775;-3.2346;9.6929;0.4920;
475017101124198;-2.1572;10.0269;-0.6093;
475017121070121;-0.0108;10.4112;-0.8990;
475017141095275;-2.5522;9.1794;-0.0874;
475017161084775;-2.8898;8.4312;1.3024;
475017181080814;-1.3012;9.7109;-0.3448;
475017201084621;-1.1277;10.0485;-0.5914;
475017221046044;-2.1213;10.0305;-0.8679;
475017241040814;-2.6492;9.5948;-0.8320;
475017261051044;-1.1516;9.0393;-0.3352;
475017281124160;-1.4664;8.8035;0.6812;
475017301106352;-3.5338;9.9120;-0.1185;
475017321116698;-1.3838;9.6762;-0.1496;
475017341198544;-1.3599;8.8119;0.4788;
475017361109544;-1.9644;9.5672;0.5267;
475017381102737;-2.1296;10.8876;0.3555;
475017401103390;-2.8730;9.6426;0.3280;
475017421197006;-2.1129;8.3582;1.7897;
475017441112737;-1.7897;9.6414;0.6093;
475017461105852;-1.7274;11.2432;-1.4772;
475017481102429;-2.1847;10.0006;0.2849;
475017501109583;-2.6552;8.9615;2.0039;
475017521107313;-1.7921;10.1299;0.9445;
475017541147429;-2.2170;11.2228;-0.4824;
475017561110429;-1.9333;8.9292;1.5670;
475017581094736;-1.9201;8.5928;1.8447;
475017601170698;-3.3698;10.6075;-0.6812;
475017621092775;-2.5223;11.3270;-1.4880;
475017641107352;-1.4174;9.7420;1.0475;
475017661112313;-1.4641;9.5636;0.8559;
475017681094813;-3.1939;9.7516;-0.7949;
475017701030429;-1.9034;9.7480;-0.5267;
475017721104583;-1.8040;10.2340;1.9501;
475017741762813;-3.1939;10.6781;1.0523;
475017761019852;-2.9305;10.3908;0.5974;
475017781028582;-1.3360;9.4320;0.5842;
475017801015621;-1.1540;9.5277;1.3300;
475017821078582;-3.9313;10.3118;-2.0674;
475017840997044;-1.7430;9.4403;-0.6752;
475017861038544;-1.3767;8.9160;1.0487;
475017881035736;-1.8663;9.7827;0.6740;
475017901100659;-2.6815;10.3022;-0.3843;
475017921116429;-2.5007;10.1071;-0.3711;
475017941167275;-1.3767;9.6103;1.4485;
475017961080698;-2.5522;9.6271;-0.8344;
475017981013582;-2.1715;9.4786;-0.9565;
475018001185467;-1.8663;8.5186;1.1229;
475018021179852;-1.5909;9.1770;-0.7207;
475018041083736;-2.4122;10.2220;-0.6476;
475018061109121;-2.1261;9.3302;-0.5435;
475018081095659;-2.1715;8.6467;0.9720;
475018101185851;-1.9237;10.0197;-1.6556;
475018121096198;-2.1021;9.4140;-1.3204;
475018141167967;-3.2489;8.7987;0.1808;
475018161167544;-1.8076;9.3960;0.3041;
475018181081774;-1.6197;10.1263;0.3783;
475018201109236;-1.5742;9.3410;-0.0838;
475018221107659;-2.8012;8.6072;1.0116;
475018241110851;-2.6145;10.4782;1.0199;
475018261103467;-2.7605;11.3653;-1.1325;
475018281060774;-2.3008;10.1682;-0.0994;
475018301067851;-0.8080;9.0992;1.4066;
475018321027121;-2.8000;11.1498;0.4585;
475018341103428;-3.4453;11.5724;0.4381;
475018361086736;-2.2769;9.6091;0.5124;
475018381000082;-1.2414;8.6503;1.6676;
475018401033813;-1.6903;11.0816;-1.5335;
475018421095659;-1.2091;10.6674;0.4621;
475018441048428;-1.8423;9.8653;1.1372;
475018461102120;-3.5566;8.9148;2.2685;
475018481103697;-2.3200;10.4303;-0.6153;
475018501095543;-1.7849;10.4040;-2.4828;
475018521281467;-0.5076;8.9376;-0.8607;
475018541124659;-2.1548;8.3354;1.5838;
475018561168236;-2.7426;11.6095;-3.5207;
475018581099928;-2.5163;8.1930;0.2071;
475018601181082;0.1269;7.5501;3.4046;
475018621086697;-0.5040;10.1981;0.9278;
475018641192197;-4.1396;11.9938;-2.8575;
475018661103120;-2.9257;9.4200;0.0766;
475018681012697;-1.7250;7.0485;4.2341;
475018701099428;-1.8040;10.1251;0.3280;
475018721235813;-2.5295;12.2044;-3.1580;
475018741267659;0.0754;8.9914;2.5426;
475018761607236;-1.6616;7.1563;4.3036;
475018781011774;-4.4173;10.5919;-1.8375;
475018801078351;-0.6656;10.9978;-1.7945;
475018821060120;-1.4461;7.8590;1.1540;
475018841114505;-2.2003;8.7580;0.7925;
475018861053466;-3.0083;11.9531;0.1664;
475018881041582;-2.4660;12.2284;-0.2969;
475018901036082;-3.4046;8.1475;-0.2622;
475018921046197;-1.1241;6.9001;0.6692;
475018941105505;-1.0570;9.4547;1.6496;
475018961052889;-1.6640;12.1446;-2.4744;
475018981037697;-2.1237;11.1211;-2.2625;
475019001046274;-3.4740;7.6662;1.8483;
475019021095889;-1.7083;7.8099;0.9589;
475019041095582;-0.9864;12.9323;-1.5993;
475019061097158;-1.6532;9.5984;4.7250;
475019081088851;-4.8111;6.9899;3.9157;
475019101092043;-0.9026;10.1514;-0.1580;
475019121117005;-1.2953;12.9957;-2.3643;
475019141350581;-1.6652;9.5146;1.5658;
475019161169351;-3.6296;7.9751;2.6217;
475019181089658;-3.1232;9.6474;-0.4322;
475019201101812;-0.5950;11.4586;-2.4229;
475019221097812;-2.0626;9.3194;0.8452;
475019241115197;-2.8096;8.5880;3.7852;
475019261104697;-3.7709;9.9036;0.9026;
475019281113543;-1.0834;11.1869;-1.9393;
475019301030889;-2.0530;8.5700;2.8910;
475019321113274;-3.7445;9.1554;1.2294;
475019341200004;-2.0375;10.0545;0.0718;
475019361180504;-0.2849;10.0018;-0.5136;
475019381166927;-2.2649;8.9399;1.3108;
475019401095620;-3.5757;9.6115;-0.2514;
475019421179312;-2.3595;10.0604;-0.3531;
475019441195389;-0.8176;9.5421;0.4405;
475019461102812;-1.4521;8.6790;0.4046;
475019481094620;-2.9497;9.4439;-0.3256;
475019501096543;-2.7725;9.6510;0.9792;
475019521201697;-1.5024;9.9240;0.2502;
475019541107274;-1.1277;9.1147;1.4533;
475019561168158;-2.5211;9.5445;0.9050;
475019581168735;-2.3655;10.1382;-0.6764;
475019601099966;-0.8296;9.8557;0.3184;
475019621182773;-0.9433;8.8107;2.5666;
475019641183927;-2.9353;9.4679;0.6740;
475019661108620;-1.6125;10.3621;-0.8080;
475019681181235;-1.3420;10.4639;1.2677;
475019701096043;-1.8806;8.8202;1.1863;
475019721109043;-1.7142;9.1925;-0.4549;
475019741289350;-1.6257;10.0556;-0.4585;
475019761497620;-0.7398;9.7348;0.4238;
475019781049543;-1.5203;9.1327;0.9565;
475019801013158;-2.7725;10.2771;0.4453;
475019821065235;-2.1644;9.8749;-0.0551;
475019841046119;-1.5874;10.1095;0.4238;
475019861093196;-0.9301;9.6103;2.3942;
475019881036504;-1.8483;9.7791;1.2534;
475019901037581;-2.3284;10.0102;0.4788;
475019921059081;-0.9505;10.2723;0.4094;
475019941045542;-2.3882;9.6786;1.6843;
475019961090042;-2.3954;10.6195;0.3735;
475019981092850;-0.9038;10.1742;0.6357;
475020001096119;-1.2893;9.9958;1.4820;
475020021092542;-3.0382;10.5776;0.9768;
475020041107081;-1.3204;9.2763;0.4022;
475020061087504;-1.3767;8.5509;1.9680;
475020081119158;-2.1955;9.5325;-0.2454;
475020101101619;-1.7166;10.3549;-1.1025;
475020121024850;-1.1827;9.2967;0.1712;
475020141081388;-2.4074;8.6072;0.9505;
475020161147235;-1.2115;9.3925;-0.8224;
475020181148812;-0.7123;9.7396;-1.5455;
475020201094081;-1.9369;7.9631;0.5555;
475020221179350;-3.0358;8.0194;0.9625;
475020241096696;-0.8799;10.2819;-0.0503;
475020261102542;-1.1193;10.5536;-1.2629;
475020281102658;-2.1356;8.1475;0.2239;
475020301091619;-1.3084;9.5888;1.0499;
475020321096081;-1.3288;10.8386;0.2753;
475020341098196;-1.5981;10.0640;-0.1053;
475020361096081;-3.2920;9.0932;1.9620;
475020381096427;-1.8423;10.0461;1.3647;
475020401090004;-1.4281;11.0480;-1.5622;
475020421169388;-2.1560;10.1885;0.1077;
475020441096119;-2.6408;8.9998;1.9441;
475020461097081;-2.0937;10.1849;0.9230;
475020481103657;-1.3024;10.6243;-0.3903;
475020501092157;-1.1684;9.9264;-0.0898;
475020521099350;-2.7270;9.1686;1.1947;
475020541125273;-1.8220;10.1035;0.2083;
475020561152696;-0.7171;10.3130;0.4872;
475020581185734;-2.5977;9.3278;0.9158;
475020601099927;-2.1620;9.0501;0.5219;
475020621089465;-0.4968;9.8282;-1.0475;
475020641175465;-1.2665;11.0983;0.9577;
475020661104696;-3.0011;9.8414;0.6524;
475020681102273;-2.3272;8.7376;0.6847;
475020701090234;-1.3647;9.7025;0.4381;
475020721029773;-0.6524;9.9587;-0.5136;
475020743098196;-2.9353;9.1794;0.0790;
475020761105580;-2.5522;9.1339;0.6596;
475020781044773;-1.6364;9.5888;1.6305;
475020801016273;-2.4169;10.2113;-1.1396;
475020821020965;-1.5622;9.2799;0.1772;
475020841060196;-1.5239;8.4539;1.5622;
475020861060273;-2.2158;10.3717;0.4250;
475020881121965;-2.7138;9.7564;-0.8440;
475020901051503;-2.0135;8.2313;1.1456;
475020921116196;-1.9166;8.3606;2.6803;
475020941116580;-2.1404;10.4567;-1.2546;
475020961115926;-2.0506;11.0600;-1.4054;
475020981113196;-1.8699;8.8885;0.6141;
475021001095849;-1.2629;8.0721;2.2398;
475021021111580;-1.4246;11.2264;-1.2031;
475021041115849;-3.3220;9.3111;1.3587;
475021061115772;-2.6025;8.2528;4.0893;
475021081194234;-1.1325;10.5872;1.1001;
475021101049542;-1.5071;11.4000;-2.4014;
475021121083157;-2.1069;9.3877;0.4381;
475021141141926;-2.3882;8.4982;2.6564;
475021161092349;-1.1360;10.3609;-2.0016;
475021181082926;-2.0506;11.9890;-2.8838;
475021201207003;-2.7450;8.8478;1.2941;
475021221095118;-0.9230;7.5836;0.8140;
475021241175157;-0.4417;10.9547;0.1544;
475021261102157;-2.5953;11.6717;-1.6831;
475021281105849;-1.5479;7.6184;0.3519;
475021301093118;-1.7059;9.0058;0.2933;
475021321095465;-0.9361;10.5058;-0.9242;
475021341234811;-2.4122;10.9547;-3.0215;
475021361089618;-1.6436;8.0852;1.4293;
475021381084580;-0.6560;8.0397;2.7246;
475021401084888;-1.7298;10.5500;-0.7709;
475021421031580;-1.7526;11.2001;-3.5051;
475021441117849;-1.8387;7.4172;1.2246;
475021461115388;-2.3966;7.8410;1.8699;
475021481117080;-2.7306;11.2168;-1.1265;
475021501106888;-1.8699;11.4658;0.2179;
475021521114887;-1.6029;8.8526;3.0789;
475021541127580;-1.0606;9.4822;-0.9026;
475021561094426;-2.7916;9.5816;-1.4162;
475021581188272;-3.0478;9.4463;0.4489;
475021601168464;-2.1284;8.8645;0.7350;
475021621082580;-1.0523;9.1925;-1.1085;
475021641171234;-1.2558;9.7887;-1.3659;
475021661175157;-1.9429;10.0975;-1.2989;
475021681109003;-2.3331;10.1909;-0.1676;
475021701109810;-2.1021;9.3518;1.0080;
475021721094926;-3.2836;9.6474;1.2725;
475021754357810;-0.9325;10.2951;-0.1317;
475021781038810;-2.4134;9.7181;1.9585;
475021801050349;-2.7677;10.2460;-0.5267;
475021821020157;-1.7849;10.8362;-0.2191;
475021841005156;-1.2821;10.0856;1.3958;
475021861101118;-2.7677;9.7755;1.9692;
475021881039618;-3.4153;10.2759;-0.2825;
475021901044195;-1.3575;9.8342;0.1305;
475021921036310;-1.5275;9.6810;2.0542;
475021941093349;-2.3655;9.5577;1.9549;
475021961161349;-1.6544;9.5565;1.6029;
475021981110849;-1.3994;9.9659;-0.2705;
475022001117464;-2.3547;9.9778;1.8699;
475022021104849;-2.7497;9.3781;1.1420;
475022041144810;-1.6197;9.3529;1.1564;
475022061245272;-0.9589;9.2572;0.5207;
475022081134426;-2.5043;9.4200;-1.7849;
475022101090041;-1.1983;9.4786;1.2737;
475022121073426;-2.6516;9.7516;0.4178;
475022141103772;-1.3743;10.3298;1.0092;
475022161114310;-2.4421;9.4846;0.7685;
475022181119887;-2.2661;9.3314;1.0582;
475022201105002;-1.0834;9.9754;-0.3280;
475022221030310;-1.6185;9.6343;-0.8416;
475022241024772;-1.4557;8.9124;1.0451;
475022261102541;-2.7521;9.5349;0.4800;
475022281100579;-1.3024;9.7025;-0.9984;
475022301101541;-2.2877;9.2392;-0.3723;
475022321109310;-1.0247;9.0417;0.7853;
475022341117156;-2.4181;10.1275;0.1664;
475022361043810;-1.5538;10.7859;0.2873;
475022381107233;-2.3080;9.4990;0.9577;
475022401080887;-2.4744;8.8645;0.5650;
475022421082695;-2.5462;9.6438;-0.0515;
475022441085425;-2.1105;10.4591;1.3910;
475022461089118;-1.3180;10.5872;0.5818;
475022481097887;-1.9094;9.6115;-0.5363;
475022501104925;-3.2034;9.3111;0.7829;
475022521087271;-2.9329;10.7703;-0.9182;
475022541088464;-1.3443;10.2508;-0.0060;
475022561118733;-2.7797;9.3194;1.3551;
475022581014617;-2.5259;10.2627;0.2394;
475022601177387;-2.1332;10.6267;-1.1253;
475022621020617;-1.9740;9.8067;0.8092;
475022641087848;-3.4895;8.8059;2.8551;
475022661168387;-1.9441;10.1682;0.5722;
475022681103502;-1.2689;10.7895;-1.0008;
475022701091310;-2.6588;9.3314;-0.1053;
475022721813848;-3.4453;8.4515;0.8859;
475022741104771;-1.5419;10.2867;-0.9361;
475022761035425;-0.7685;10.0497;-1.2019;
475022797009310;-2.7641;8.4072;0.0263;
475022821009040;-1.2905;9.7731;-0.6261;
475022841094233;-1.9225;9.6055;1.1672;
475022861058271;-2.4864;9.7264;0.8404;
475022881038040;-1.1325;9.7803;0.1879;
475022901038348;-1.9046;9.7324;0.5914;
475022921048194;-2.8910;9.4595;0.5483;
475022941052963;-2.8072;9.7935;1.0235;
475022961051886;-1.4760;10.3920;1.1456;
475022981094810;-1.8016;9.6079;0.0898;
475023001146386;-1.8830;10.0892;0.3579;
475023021071579;-2.8228;10.0006;0.4872;
475023041089886;-2.3583;9.9563;0.4537;
475023061169617;-1.8268;10.0736;0.7602;
475023081101925;-2.0674;10.1801;-0.5818;
475023101109156;-2.2015;9.2237;-0.2215;
475023121108925;-2.6480;9.7037;0.3184;
475023141175425;-2.2063;9.2596;0.8559;
475023161108463;-2.0159;10.2855;-2.0686;
475023181174809;-1.4257;9.2751;1.9513;
475023201100502;-2.3200;9.1411;1.2617;
475023221096617;-2.7725;9.8114;0.7673;
475023241093463;-2.3990;9.7516;-0.0826;
475023261026348;-1.1396;9.0010;1.6532;
475023281127540;-1.6173;10.6350;0.1760;
475023301087732;-2.6085;10.0389;-0.3448;
475023321085502;-3.2741;9.3206;1.5610;
475023341089348;-2.1739;9.7396;1.5287;
475023361200771;-1.5838;11.0133;-0.4142;
475023381096694;-2.0159;10.3453;0.8894;
475023401167963;-2.2338;8.2959;2.8503;
475023421085694;-1.4485;10.6051;0.2885;
475023441084002;-2.5546;11.2731;-0.8475;
475023461175578;-3.2082;9.3745;0.9661;
475023481092194;-1.6340;8.3534;3.2346;
475023501091771;-0.9194;10.2807;0.0611;
475023521092271;-3.4919;9.7181;-1.1169;
475023541096425;-2.3978;7.9847;2.6252;
475023561115040;-0.5758;9.6019;0.7841;
475023581007886;-2.0327;10.8673;0.9649;
475023601169271;-2.0363;8.8418;1.3946;
475023621116963;-2.1895;8.8550;0.4453;
475023641169309;-3.1352;8.3199;0.2310;
475023661181809;-2.8874;8.9160;0.6333;
475023681190732;-1.0247;9.9288;-0.1173;
475023701105040;0.0790;10.1490;0.6740;
475023721138117;-3.2382;9.2249;-0.4585;
475023743895424;-2.7749;9.4906;0.8643;
475023761018424;-1.5227;10.3202;1.5526;
475023781038886;-2.2637;10.4028;1.5574;
475023801014924;-3.9600;9.2057;2.6085;
475023821015617;-1.6053;9.5720;1.7250;
475023841073232;-1.7262;10.4902;-0.3615;
475023861059963;-2.5091;10.4974;-0.1448;
475023881004232;-2.9796;9.1447;0.9098;
475023901057309;-1.3874;10.0473;0.1484;
475023921054193;-1.2091;10.5369;-1.1815;
475023941091463;-3.0131;9.9527;-0.2586;
475023961180655;-3.3220;8.8765;1.5395;
475023981184693;-1.6568;9.6666;1.9477;
475024001190424;-1.4126;10.5908;-1.0918;
475024021083424;-2.7473;9.2500;0.8679;
475024041081578;-2.5115;9.0573;0.6740;
475024061173886;-1.9501;9.6941;0.0024;
475024081171770;-1.6688;10.1718;0.1341;
475024101093693;-1.4305;9.3015;-0.1700;
475024121096386;-2.1021;9.3613;0.4286;
475024141031847;-2.6959;9.2835;0.1939;
475024161188193;-2.3379;10.0616;0.2322;
475024181192886;-0.5148;9.8725;0.0898;
475024201176770;-1.5981;9.1099;0.9685;
475024221092847;-2.7414;8.2935;1.5191;
475024241086501;-2.2087;9.9659;-1.4257;
475024261300693;-0.8882;9.3302;1.0439;
475024281169732;-2.5881;9.0716;-1.2426;
475024301171232;-1.6233;9.3613;-0.3089;
475024321177424;-1.2677;9.8952;-0.6105;
475024341090385;-1.6316;8.7700;1.3791;
475024361180885;-2.2685;9.1830;1.2438;
475024381148924;-1.7190;10.3609;-0.4345;
475024401101539;-1.4401;10.5093;0.8009;
475024421167578;-1.0116;9.1806;2.5774;
475024441082001;-3.0885;10.0078;-0.6847;
475024461105847;-2.7473;10.4579;1.5000;
475024481089924;-1.2570;9.9742;1.9944;
475024501101847;-0.5267;10.0820;1.5718;
475024521093539;-3.4237;10.0030;0.2634;
475024541086078;-2.2948;9.5900;0.1700;
475024561151039;-1.2366;10.5285;0.9828;
475024581087693;-1.8375;9.5996;-0.4202;
475024601009424;-2.6157;9.2584;1.4593;
475024621170962;-1.8866;9.7276;1.6652;
475024641088885;-2.3152;10.1813;0.5471;
475024661084539;-2.0770;9.9551;-0.2442;
475024681089847;-2.4636;9.0573;3.3459;
475024701100193;-2.1440;10.1526;1.9333;
475024721018885;-1.7083;10.9666;-0.7422;
475024754667193;-2.5929;8.1750;2.0435;
475024781161808;-1.7454;10.5848;0.1053;
475024801007039;-0.7290;10.6099;0.8667;
475024821051116;-2.4193;9.5062;1.3862;
475024841002693;-3.9061;9.2931;0.3244;
475024861034847;-1.6867;9.7145;-0.4681;
475024881173616;-0.8236;9.1770;1.5275;
475024901102116;-2.0734;9.6965;0.9972;
475024921088193;-2.4373;10.3058;0.5842;
475024941083308;-1.7573;9.6534;-0.4896;
475024961170462;-1.2965;9.0800;0.5926;
475024981170731;-2.7641;9.6558;0.8906;
475025001024616;-2.2075;10.6039;1.0151;
475025021178923;-2.2182;9.5445;0.3436;
475025041084116;-1.7490;9.3709;1.0295;
475025061166539;-2.7246;9.8019;0.0814;
475025081102231;-1.8507;9.7767;-0.5531;
475025101094346;-1.8100;9.6414;-0.0144;
475025121185654;-1.8794;9.7264;0.2095;
475025141096654;-2.7737;9.8904;0.0742;
475025161112808;-2.2649;9.4786;-0.1532;
475025181182577;-2.9904;9.1399;0.7374;
475025201087039;-1.9106;9.2033;0.4525;
475025221089308;-1.3503;10.2759;1.0774;
475025241096039;-3.2154;9.9647;-0.5052;
475025261095154;-2.8742;9.2392;1.2390;
475025281111923;-2.1201;9.1267;1.0558;
475025301114154;-2.2769;10.0221;-0.3148;
475025321105154;-2.7114;9.9539;0.5722;
475025341108000;-1.6364;9.5804;0.3639;
475025361112923;-3.0203;9.2404;0.2490;
475025381113500;-2.5199;9.4595;-1.1911;
475025401098577;-1.9860;10.0772;-0.5303;
475025421199154;-2.0997;9.7875;1.0714;
475025441105385;-2.8240;9.5086;0.1808;
475025461114615;-3.6117;9.1231;-0.8368;
475025481137308;-1.9908;9.2141;1.2641;
475025501112115;-1.1803;9.8629;1.0654;
475025521109654;-1.8639;10.7332;0.5183;
475025541047423;-4.1073;8.7939;1.8986;
475025561165577;-2.8563;9.3027;3.1987;
475025581075462;-1.6664;11.9507;-0.0778;
475025601082808;-2.0351;10.6063;-0.1413;
475025621067731;-2.9856;8.4958;3.7733;
475025641088038;-2.5546;9.7312;1.7454;
475025661111769;-1.6652;11.2803;-1.0690;
475025681111308;-3.1532;9.7372;0.5531;
475025701196115;-3.4237;7.9104;3.4632;
475025721249308;-1.3384;10.6135;3.0777;
475025741507423;-2.3343;12.7587;-0.6967;
475025762601769;-4.2318;6.5733;0.5758;
475025782450846;0.0168;5.3953;1.2893;
475025801023115;1.1360;9.5397;0.5674;
475025821012384;-5.2876;10.9403;-1.1839;
475025840993961;-5.2349;9.7636;-1.7071;
475025860991769;-0.0826;7.7824;0.6548;
475025881098192;0.5555;8.7831;-0.5435;
475025901053577;-2.0758;10.3394;0.6548;
475025921055192;-2.6181;10.7153;4.0007;
475025941109077;-1.9070;8.1068;5.2864;
475025961110192;-4.4544;9.8474;0.2717;
475025981116654;-2.8754;12.2104;-2.8120;
475026001118269;1.6855;8.6060;4.0414;
475026021099115;-4.9440;9.6343;3.7182;
475026041091000;-1.9992;12.8329;-1.0774;
475026061093307;-2.1955;10.4423;-1.0858;
475026081104807;-2.4169;7.5094;5.5462;
475026101113384;-3.3064;9.6103;3.2980;
475026121114307;-1.9537;12.7575;-1.0858;
475026141109923;-2.9712;9.5385;0.4705;
475026161109115;-2.2553;7.7967;3.6212;
475026181028653;-1.4605;9.9707;1.9285;
475026201173500;-1.3815;12.0680;-1.1576;
475026221086923;-1.8028;10.1957;0.9529;
475026241094730;-3.1161;8.4084;3.0777;
475026261099730;-1.4736;10.9247;-1.3384;
475026281183307;-1.5886;9.8593;-0.4824;
475026301180923;-2.1739;8.2133;3.7433;
475026321099884;-2.0662;9.7145;1.9261;
475026341169961;-1.6999;10.9595;-2.6193;
475026361098576;-1.3862;9.6223;-0.5231;
475026381109115;-1.2282;8.4348;2.2889;
475026401176922;-1.6448;9.7839;1.3707;
475026421080692;-1.9525;10.3669;-0.0251;
475026441085422;-1.4353;9.2979;0.7865;
475026461096615;-1.2067;9.3757;0.4250;
475026481180576;-2.8012;9.7145;0.5004;
475026501181922;-2.1608;10.0545;1.0151;
475026521178576;-1.0511;9.4367;1.5143;
475026541106307;-2.2841;10.5105;1.4078;
475026561136307;-3.3555;10.4435;-0.0335;
475026581012576;-1.3755;9.0357;1.1744;
475026601094653;-1.4018;8.7664;1.9644;
475026621088538;-1.7214;9.8174;1.4545;
475026641089192;-1.5107;10.4124;0.2873;
475026661080692;-2.2721;9.5229;-0.5279;
475026681093153;-2.4397;8.4240;2.0698;
475026701183768;-1.7825;9.2919;1.8387;
475026721115191;-1.0080;11.0672;-0.4561;
475026755500807;-3.0227;8.6754;1.5658;
475026781056307;-1.3719;10.0018;-0.7901;
475026801024614;-1.2893;10.1993;1.1839;
475026821067307;-1.5634;9.4296;2.5786;
475026840997576;-1.2665;9.5948;2.0183;
475026861066999;-1.9010;11.0002;-0.3112;
475026881061768;-0.9828;10.1155;-0.1041;
475026901050653;-1.3862;8.7736;1.7837;
475026921061845;-1.5838;9.7348;1.8112;
475026941099730;-1.2797;10.9259;-0.3412;
475026961098614;-1.2186;10.2400;-0.3196;
475026981178576;-1.0199;8.7269;1.0798;
475027001178153;-1.0798;10.0628;1.5443;
475027021116153;-0.7614;11.5317;-0.0670;
475027041088230;-0.6536;9.7396;0.6800;
475027061094653;-1.3240;8.8909;1.4042;
475027081172845;-1.3096;9.6941;0.4956;
475027101178845;-1.3384;10.3669;-0.3256;
475027121089960;-0.5543;9.6893;1.0463;
475027141093653;-0.7805;9.2488;2.4505;
475027161101960;-0.8847;10.0832;-0.7889;
475027181090230;-1.2019;10.3453;-0.3100;
475027201093768;-0.6680;8.9830;1.0463;
475027221181153;-0.9541;8.3306;1.0953;
475027241090499;-0.8260;10.2615;-0.0287;
475027261081499;0.3627;9.8258;0.0539;
475027281080845;-0.7135;8.0685;2.2087;
475027301104153;-1.6245;9.5948;1.3192;
475027321117037;0.4992;11.1809;-1.2210;
475027341087999;-0.0072;10.4004;0.2203;
475027361097999;-1.1815;8.0409;1.4617;
475027381094383;-0.9685;9.4763;1.7286;
475027401091537;0.4585;10.7727;0.0215;
475027421197076;-1.2210;9.5936;0.7434;
475027441096114;-0.5483;9.0154;1.0427;
475027461012383;0.5351;9.9742;-0.5004;
475027481189114;-0.4118;10.3585;-0.3543;
475027501169652;-0.4369;9.2285;2.6456;
475027521175806;-0.0084;9.3697;2.2948;
475027541094575;-0.9433;10.6781;-1.8579;
475027561103345;-0.0144;9.8689;-0.0766;
475027581089806;-0.7470;9.1482;1.1947;
475027601166614;0.1544;9.5577;1.1612;
475027621168922;-0.2035;10.2783;0.9661;
475027641111152;-0.4848;9.9647;0.4860;
475027661101806;-0.2717;9.8928;0.8356;
475027681084806;0.2622;9.7683;-0.4585;
475027701080422;-0.2969;9.2177;0.4058;
475027721009922;-0.7075;9.9671;0.8751;
475027742035191;0.4190;10.3932;-1.0511;
475027761021768;-0.4752;8.9651;-0.3208;
475027781021268;-1.4174;8.6886;0.8715;
475027801022575;0.1293;10.0353;0.2203;
475027821009806;0.4022;10.5058;-0.9457;
475027841039960;-0.3436;9.2596;1.8747;
475027860991075;-0.5782;9.4619;1.8435;
475027881093229;-0.7003;10.1945;-1.0918;
475027901083883;0.0323;8.7712;0.2717;
475027921046652;0.1401;8.2780;1.6975;
475027941040229;-0.1879;9.6462;1.0965;
475027961106960;-0.3603;10.6003;-1.1600;
475027981108844;0.6620;9.8031;1.1061;
475028001111652;-0.5160;8.2169;0.8655;
475028021079229;0.3519;9.9228;-1.3922;
475028041202075;0.0994;10.0281;0.7434;
475028061093844;0.2861;8.4755;0.5842;
475028081084690;0.5543;8.4803;0.3926;
475028101060883;0.0922;10.0042;-2.0279;
475028121083652;-0.5315;10.0269;-0.3184;
475028141085690;0.1245;9.3386;0.1760;
475028161089498;0.8356;9.4332;0.0802;
475028181095229;0.2586;10.1538;-2.1452;
475028201099229;-0.5423;9.6654;-0.1987;
475028221019960;0.4022;9.5481;1.0427;
475028241106998;1.1803;10.1107;1.5874;
475028261090075;-1.9764;10.7583;-1.0870;
475028281081806;0.8691;9.7444;0.5207;
475028301083421;0.9206;8.6658;1.6568;
475028321167883;0.2155;9.8605;-0.6297;
475028341179960;-0.7207;11.0409;-0.3603;
475028361095190;0.6309;9.9012;-0.1616;
475028381095613;0.5758;8.4779;1.0139;
475028401170806;-0.8847;9.1782;-0.4609;
475028421082844;0.0407;10.0269;-0.7302;
475028441083729;1.0726;9.8114;0.3124;
475028461018959;0.2346;8.9136;1.6807;
475028481093421;-1.1768;9.3134;0.7865;
475028501114459;0.0862;10.1694;1.0020;
475028521111152;0.9505;9.0297;1.9477;
475028541113844;-0.8882;9.5074;1.3659;
475028561103498;-0.8021;10.5381;0.4908;
475028581016844;0.0515;10.4088;1.1624;
475028601088459;0.5004;9.4679;2.5833;
475028621171190;-1.1265;9.4774;2.0877;
475028641085190;-0.6728;9.9288;-0.3268;
475028661097498;1.2390;10.1418;0.3519;
475028681081729;-0.1030;9.3661;0.9744;
475028701168805;-1.6723;9.0489;0.9122;
475028721166613;-0.8212;10.1957;0.5088;
475028741837728;0.8056;9.5708;1.3108;
475028761024382;-0.8763;9.0573;1.0439;
475028781054382;-0.1077;10.0892;0.2167;
475028801020998;0.8799;10.0736;0.3843;
475028821049882;-0.0958;9.1506;2.1620;
475028841033459;-1.0570;9.4882;1.3575;
475028861072305;0.0814;10.5596;-0.2310;
475028881043882;0.0599;10.5082;0.4130;
475028901057805;-0.4884;9.1674;1.7789;
475028921056921;-0.5076;9.0872;1.4126;
475028941056998;0.0443;10.7272;0.5471;
475028961089651;-0.0479;10.3226;0.7997;
475028981109228;-0.2286;9.1650;0.8320;
475029001114767;-0.2263;9.5265;1.4856;
475029021111613;0.1305;9.8366;0.6141;
475029041114267;-0.0838;10.0616;-0.1784;
475029061103574;-0.3280;9.9695;0.7003;
475029081101997;-0.3172;9.3362;0.9469;
475029101084421;-0.5794;9.3194;-0.5590;
475029121171036;-0.0072;9.2584;1.6795;
475029141085344;0.3089;9.6115;1.1923;
475029161087074;-0.3496;10.1514;1.0283;
475029181105151;-0.6201;9.7516;0.0359;
475029201102959;-0.4788;9.1207;0.3735;
475029221044113;0.7398;9.2979;1.1756;
475029241093074;0.8380;10.1993;0.9218;
475029261091574;-1.7597;9.4176;1.3156;
475029281104767;-0.0156;9.0166;1.3695;
475029301104305;0.4022;9.6187;0.2442;
475029321106420;0.2789;10.0676;-0.0108;
475029341084613;-0.5842;9.4810;0.0215;
475029361183151;-0.5076;10.0173;1.8723;
475029381032074;-0.3041;10.5788;-0.7661;
475029401166074;-0.4322;9.2703;-0.4286;
475029421167959;-0.3376;8.3187;1.2390;
475029441113305;0.3855;9.7133;0.9397;
475029461116382;-0.0766;11.2647;0.6213;
475029481115766;-0.1724;10.2639;-0.0754;
475029501093574;-0.7626;8.0110;2.7521;
475029521092574;0.2478;10.6386;-0.7111;
475029541108882;-0.1640;10.9846;0.8966;
475029561111766;-0.8523;9.5002;2.5127;
475029581096805;-0.7183;9.1243;2.0889;
475029601096112;-0.4800;9.9958;-0.0335;
475029621178574;0.8128;9.9048;0.5016;
475029641179997;-0.1879;9.1171;2.2446;
475029661181228;-0.2047;9.8067;2.2134;
475029681122574;-0.4884;10.3609;0.3843;
475029701104574;-0.4417;9.7648;1.0989;
475029721083228;-0.1879;9.1506;1.8064;
475029742584382;-0.0994;10.1945;0.5399;
475029761049497;-1.3659;10.4603;0.9158;
475029781025189;-0.2382;10.0066;1.8735;
475029801023805;0.2705;9.5457;0.8727;
475029821022151;0.1544;9.6750;1.6412;
475029841010535;-0.2945;9.6929;2.1763;
475029861034382;-0.4597;9.7420;1.2031;
475029881048151;-0.1484;10.5489;1.0942;
475029901050266;-0.2107;10.0652;1.0834;
475029921156266;-0.5411;9.1590;1.7154;
475029941078574;-0.8847;9.8426;1.6041;
475029961093651;0.3412;10.5896;-1.0546;
475029981092958;-0.2179;9.2177;0.8200;
475030001090535;-1.0008;9.0261;1.1277;
475030021089151;0.0611;10.3178;-0.5483;
475030041101535;0.5890;9.7085;-0.1604;
475030061175997;-0.5052;8.4839;2.1727;
475030081028266;-0.7278;9.4523;0.6895;
475030101095997;0.4585;11.0528;-1.1600;
475030121093997;-0.4800;8.8382;0.8475;
475030141180997;-0.4322;7.7668;2.9245;
475030161114074;-0.6069;10.2220;1.1145;
475030181106227;-0.5148;11.2970;-0.8894;
475030201098689;-0.2298;9.0501;2.4612;
475030221111727;-0.5327;8.0613;3.4273;
475030241108343;-0.0299;10.3214;-1.7933;
475030261184997;0.3077;9.7408;-0.8871;
475030281093189;-0.1772;7.7883;2.9317;
475030301100112;-0.3208;9.5110;0.8619;
475030321107574;-0.3950;11.2683;-1.7023;
475030341103266;0.4274;9.3158;1.3288;
475030361104920;0.1197;7.4089;3.4848;
475030381109535;-0.4800;9.4583;1.1384;
475030401114881;-0.3292;11.1127;-2.4648;
475030421195150;0.9409;9.3841;1.1289;
475030441112573;0.1987;8.0948;3.5039;
475030461109112;-0.5926;10.2496;1.1049;
475030481123535;0.1329;11.3509;-0.7566;
475030501097996;0.9553;8.6981;2.8024;
475030521104035;-0.9780;9.2237;1.7430;
475030541103496;-0.3112;11.1151;0.0539;
475030561103573;0.3244;10.4914;-0.4848;
475030581108073;-0.1173;8.9124;2.0171;
475030601108343;-0.4645;9.4535;2.6827;
475030621111150;0.8045;11.4850;-1.1217;
475030641111458;-0.0108;10.6219;0.3196;
475030661034112;-0.3280;8.5210;3.8116;
475030681104612;-0.1879;9.0860;2.5331;
475030701025996;0.6440;11.6657;-0.1137;
475030721120535;0.3352;10.7392;1.7202;
475030748107342;-0.5315;8.2097;2.0303;
475030781015535;0.7961;10.1742;0.8966;
475030801019958;1.4305;8.8885;2.0016;
475030821013112;0.7638;8.9124;0.9864;
475030840997073;-0.8894;9.0956;0.3938;
475030861047227;0.6476;8.6155;0.8392;
475030881042612;2.1644;8.8813;2.2194;
475030901106573;-0.5782;9.6941;1.1229;
475030921120573;0.4633;8.7472;1.5095;
475030941082188;0.8619;8.7747;1.1564;
475030961078996;1.3731;9.2500;1.2019;
475030981085573;0.3172;9.3170;1.7035;
475031001111150;0.2382;9.2356;1.4808;
475031021114958;1.0738;9.8102;1.6676;
475031041115996;1.0032;10.4052;1.3240;
475031061112265;0.4501;10.5105;1.3384;
475031081092727;1.3324;10.6853;2.0171;
475031101014073;1.2270;10.7344;2.1895;
475031121036727;0.3950;11.5221;1.9501;
475031141155265;0.4334;11.4443;2.2470;
475031161056958;0.6800;11.5544;2.6695;
475031181013919;1.0223;12.4008;1.1600;
475031201074534;1.7538;12.4858;1.4473;
475031221096073;0.7566;12.5863;2.6767;
475031241170573;2.2266;12.4714;0.0898;
475031261179765;1.5071;10.0592;-0.4381;
475031281087457;1.1205;8.2253;0.0634;
475031301034457;2.2649;8.3617;-0.1652;
475031321104611;2.7102;10.6973;-1.7166;
475031341180611;0.0982;9.8019;-0.1975;
475031361182688;1.1648;7.7369;0.0180;
475031381087534;2.0590;7.4639;0.0275;
475031401096919;2.3308;8.7352;-0.6895;
475031421175880;2.7916;8.1630;1.2318;
475031441174650;1.5766;8.7448;1.8926;
475031461096842;1.9393;8.5150;1.1337;
475031481111188;2.1883;8.1678;1.9501;
475031501037803;2.7114;10.0389;-1.1576;
475031521106265;3.0993;7.6255;1.5574;
475031541168380;1.5850;7.9188;3.8834;
475031561170111;0.1927;11.1630;-1.1001;
475031581096380;2.5546;11.6885;-0.1484;
475031601082457;2.0662;9.1387;0.5698;
475031621084534;1.6460;8.7448;2.3595;
475031641167957;1.4222;10.0269;0.9110;
475031661092611;2.1775;11.7160;-1.8854;
475031681096265;2.9030;10.1454;-0.3687;
475031701048649;0.7278;8.9088;2.4864;
475031721097111;0.5698;10.2340;-0.1808;
475031741707726;4.0223;11.5293;-0.9409;
475031761032342;2.7569;10.2352;1.0487;
475031781042803;0.2083;9.7779;1.0953;
475031801015996;1.9525;10.7021;-0.7985;
475031821009188;2.9305;10.3118;-0.9984;
475031841040726;1.9309;8.9938;2.6456;
475031861034380;1.0918;10.1897;0.6488;
475031880993842;1.7669;11.3210;-0.6823;
475031901058034;1.8735;10.4291;-1.3132;
475031921095880;1.6484;9.3326;1.5838;
475031941096880;-0.2442;10.4160;1.0882;
475031961082957;2.3667;11.4048;-2.3200;
475031981094226;1.7968;9.8210;-0.3172;
475032001009765;1.1588;8.8669;2.1536;
475032021025342;1.0235;11.3976;-1.5610;
475032041033880;2.0818;11.5808;-2.7725;
475032061023841;1.7681;9.2273;0.6692;
475032081026688;0.1161;9.0501;1.8292;
475032101112111;1.4928;11.6071;-1.7741;
475032121107457;2.1009;11.2575;-0.3364;
475032141182995;0.9050;7.5585;3.0179;
475032161183995;1.9585;8.6048;1.1061;
475032181180188;3.0215;11.0361;-2.7162;
475032201096188;1.6676;10.4339;-1.3288;
475032221175072;0.9852;8.5281;1.1636;
475032241104341;1.5203;10.1359;-0.6967;
475032261182803;1.0331;9.7588;0.8356;
475032281190187;2.0267;9.9623;1.8531;
475032301124380;3.1292;9.9515;0.8835;
475032321097226;2.7617;8.9579;0.0419;
475032341134034;0.3292;9.0609;1.3491;
475032361139880;1.0104;9.9826;0.3148;
475032381083303;2.3631;10.2508;-0.5878;
475032401104687;2.2458;10.1143;0.7614;
475032421101957;0.6452;9.3613;0.4752;
475032441198072;2.5821;9.2273;-0.3484;
475032461116034;2.2482;10.2472;-1.2641;
475032481076110;0.6704;9.3877;1.6592;
475032501124187;1.3791;9.7743;0.6309;
475032521105610;2.4002;10.1083;-0.9685;
475032541114303;2.6061;9.3781;0.4345;
475032561108072;1.5479;9.1051;1.6245;
475032581040995;1.9860;10.5417;-0.8954;
475032601100687;1.8950;9.8114;-0.1281;
475032621091495;2.0842;8.9100;0.3089;
475032641100533;1.8184;9.2069;0.0850;
475032661102110;2.1081;10.4028;-0.0108;
475032681179380;1.2737;10.1766;0.2478;
475032701094264;0.2741;9.5193;1.5814;
475032721119495;1.9501;10.1945;1.4341;
475032741309918;2.5726;10.7188;-0.2191;
475032763750572;1.4078;9.4116;1.3659;
475032781085572;0.7207;9.4798;0.5614;
475032801013418;1.7669;10.1610;0.0503;
475032821035649;2.0195;10.1861;0.0922;
475032841055495;2.1691;10.0425;0.4441;
475032861111264;1.9094;9.9515;-0.0527;
475032881055687;1.4329;9.7217;-0.8128;
475032901066226;0.9182;9.6283;0.2023;
475032921087456;2.0267;9.8988;1.2845;
475032941064649;2.4768;10.7835;-0.0084;
475032961048610;1.9800;10.1730;-0.1125;
475032981050149;1.3587;8.9124;1.1456;
475033001001649;0.9278;10.0568;-0.2610;
475033021034725;1.7490;10.4160;0.1245;
475033041043264;2.7258;9.7312;0.9840;
475033061029687;1.2079;9.2967;1.0630;
475033081042610;1.4664;9.7193;0.6009;
475033101018033;2.8311;9.8138;-0.2765;
475033121094995;2.0602;9.4391;0.2813;
475033141095802;0.4453;9.5732;2.1033;
475033161168302;1.6448;10.4196;-0.2167;
475033181092610;3.0430;9.8940;-0.1437;
475033201089302;3.0095;9.0633;3.5171;
475033221187302;-0.3208;10.0688;0.6309;
475033241179148;2.4936;11.0085;-1.2917;
475033261084994;3.0813;9.0597;1.8016;
475033281118225;1.6747;8.9220;1.9178;
475033301082802;0.7230;10.9020;-1.0523;
475033321026687;2.1129;10.7595;-0.3220;
475033341120148;3.2429;9.1123;1.5263;
475033361081994;1.4676;9.6462;2.1596;
475033381175956;0.1616;11.4311;-1.3240;
475033401099917;2.9904;10.5560;-0.8799;
475033421103264;2.7234;8.5437;2.0039;
475033441181956;1.7454;9.2727;1.5730;
475033461098648;1.7202;11.2839;-1.2534;
475033481112187;2.7785;9.3709;0.9697;
475033501099879;2.3152;8.3210;1.3036;
475033521033379;1.7322;9.7229;-0.5052;
475033541100571;1.2031;10.8290;-0.8452;
475033561167456;1.5514;9.8306;0.3005;
475033581126994;3.2334;8.6431;2.0399;
475033601098571;2.7581;9.5098;1.1384;
475033621189340;0.5555;10.5692;-0.9349;
475033641181763;2.2434;9.5720;0.0563;
475033661178263;2.5654;8.9507;1.7059;
475033681105956;0.9816;9.9204;0.7458;
475033701099802;1.0678;11.1558;-0.4968;
475033721030417;2.0674;9.9216;-0.3124;
475033748624186;2.6576;9.0477;1.6771;
475033781297725;1.4940;10.2089;-1.2222;
475033801010225;3.4405;9.4020;1.0235;
475033821048263;2.3343;8.6407;1.0834;
475033841007033;1.2486;9.7276;-1.1791;
475033861094263;1.8208;10.0066;-1.0463;
475033881096263;2.0806;9.1782;0.4453;
475033901107109;2.7701;9.4212;1.1049;
475033921094417;1.2139;10.4076;-0.3220;
475033941114071;2.2015;9.8557;0.1652;
475033961099532;3.0873;9.3733;1.3994;
475033981186032;1.6472;9.9934;-0.0575;
475034002831686;0.8212;10.0652;0.0982;
475034021173725;1.9980;9.8414;1.3048;
475034041169109;2.9090;10.0066;-0.0347;
475034061172571;1.5874;9.9802;-0.8882;
475034081084994;1.1803;9.8940;-1.2594;
475034101085186;2.9544;9.7803;0.9924;
475034121097302;2.7485;10.2855;0.2059;
475034141135302;1.3982;10.0987;0.4848;
475034161029417;0.9206;8.9818;2.5019;
475034181111071;2.7378;10.0126;2.8551;
475034201104263;3.0861;11.1618;0.0814;
475034221100917;0.6069;10.4447;1.5598;
475034241104609;2.8802;9.1901;2.7162;
475034261103571;3.1029;11.4299;-0.9278;
475034281113994;0.8464;10.8781;0.0563;
475034301080148;1.6245;8.1020;2.8108;
475034321128532;2.2913;9.1554;1.1803;
475034341132032;2.4792;11.8956;-0.4489;
475034361044840;1.9585;11.0073;-1.8292;
475034381105840;1.4868;7.6028;2.3703;
475034401113686;2.5762;8.6514;2.5762;
475034421108455;2.9078;10.6769;-0.8116;
475034441113494;1.3288;10.6997;-0.7458;
475034461111801;2.0446;8.1271;2.1165;
475034481111378;2.4804;9.6271;0.3531;
475034501111378;1.3012;11.0624;-1.3276;
475034521106570;2.1548;9.1506;0.5195;
475034541136455;3.1819;7.8171;3.6835;
475034561107994;2.6276;9.6235;-0.1041;
475034581049224;2.3774;10.7859;-0.4633;
475034601119570;1.4533;10.2747;1.5395;
475034621098647;1.7011;9.7803;1.9237;
475034641104993;2.3858;9.8318;1.1133;
475034661177993;2.1943;10.8314;-0.4058;
475034681112647;1.6544;9.3350;0.8308;
475034701112993;0.6213;9.1159;3.2178;
475034721028378;2.5307;11.0301;1.8771;
475034741052070;3.3172;10.2400;-3.4405;
475034770417070;-0.0814;8.4396;1.9070;
475034801080609;4.1384;12.4834;0.1460;
475034821018686;2.8311;11.0840;-2.0650;
475034841064493;0.3472;6.1543;1.6843;
475034861107878;3.0837;6.2788;4.8459;
475034881110339;4.2222;13.3309;-2.4313;
475034901044339;1.7861;13.6446;-1.8471;
475034921041647;0.0383;7.1539;2.0004;
475034941069916;0.3603;5.7616;4.8052;
475034961107724;2.3703;12.3912;-2.9820;
475034981103839;4.0294;11.3186;-1.6568;
475035001043993;1.2689;6.0753;6.1172;
475035021040416;0.0120;7.9559;5.0458;
475035041177186;1.7322;13.5584;-4.4891;
475035061200147;3.6619;12.7934;-2.6372;
475035081109416;2.0937;7.3873;4.4436;
475035101083916;-0.5267;7.7512;4.3670;
475035121113070;1.0451;13.4734;-3.1101;
475035141103109;2.5055;12.4558;-4.0127;
475035161201493;1.7142;7.2903;4.1456;
475035181029570;0.2741;7.3514;3.7002;
475035201183224;1.0355;12.5181;-2.3212;
475035221098532;2.8036;9.1482;0.5710;
475035241187262;-0.0227;7.7081;5.5821;
475035261183839;-2.1763;10.7847;2.2781;
475035281112531;-1.6101;12.4750;-2.5582;
475035301109955;0.9385;9.9120;-1.0451;
475035321057262;0.6955;6.1160;4.4460;
475035341125608;1.1468;7.4627;-1.6915;
475035361030724;1.7992;12.0237;4.2988;
475035381100301;0.6117;11.1678;-1.9369;
475035401080070;0.9852;7.3969;2.8479;
475035421089724;-2.5355;7.4364;-4.2629;
475035441141685;-1.1325;8.3546;0.6524;
475035461120301;2.0853;10.2161;1.0068;
475035481119839;0.6967;9.8737;0.7554;
475035501118839;-1.4688;8.7879;2.4433;
475035521113801;-0.1760;5.1763;8.0349;
475035541106147;1.3084;12.3661;-7.1072;
475035561122993;0.4334;11.2719;-3.7397;
475035581134839;0.0886;5.4636;6.4667;
475035601084531;-0.8404;7.2712;7.7021;
475035621099762;1.3156;13.8193;-4.0869;
475035641091300;0.5028;10.7081;-2.1081;
475035661096531;-1.5634;5.9855;6.3375;
475035681105647;-1.3599;9.6857;1.4796;
475035701163454;0.5231;13.1633;-3.7445;
475035721089839;0.1592;8.4120;2.0147;
475035747508493;-1.4952;7.7895;4.2725;
475035781019685;0.4106;12.9766;-1.3001;
475035801006300;-1.1480;9.4571;2.0327;
475035821003916;-0.0611;8.2947;1.7466;
475035841007223;0.5064;11.1989;-1.4078;
475035861046877;0.0778;12.4810;-2.2063;
475035881045839;-1.7825;9.5062;1.0367;
475035901133685;-1.0127;8.5677;1.5874;
475035921062531;0.7781;10.4136;-1.0882;
475035941084223;1.4030;10.4435;-0.9313;
475035961111300;-1.1839;10.2580;2.5139;
475035981112108;-2.0494;10.2999;-0.2490;
475036001107531;-0.4238;9.8114;1.4329;
475036021025954;0.6021;9.6139;2.3008;
475036041095262;-1.0403;10.3825;-0.2586;
475036061186646;-2.2063;10.6997;-0.1616;
475036081027185;-0.2646;9.5181;2.0195;
475036101182877;0.2921;8.3187;2.9461;
475036121098069;-0.5160;10.2855;-0.1568;
475036141109723;-2.1799;11.6059;-2.3846;
475036161039954;-0.4693;8.9292;1.7992;
475036181087339;-0.3819;8.6060;2.0985;
475036201168377;0.0802;10.8254;-1.7681;
475036221085915;-1.1576;9.1782;0.4549;
475036241097454;-0.9481;8.5533;3.0466;
475036261188723;0.4657;10.1921;-0.9002;
475036281104531;-0.1688;10.0748;-1.4784;
475036301091223;-1.0116;8.4467;2.0207;
475036321086569;-0.6033;8.8585;1.5359;
475036341092492;-0.1389;10.4040;-1.6137;
475036361121223;0.6955;9.6881;-0.7266;
475036381103415;0.0048;8.1558;2.0746;
475036401083492;-0.7482;9.6367;1.4856;
475036421081492;-0.6249;10.6446;-1.1169;
475036441091261;0.5411;9.0609;1.3635;
475036461188300;-0.6345;8.5772;1.0690;
475036481104377;-0.3591;10.9128;-1.8759;
475036501101300;-0.1724;9.6031;0.2837;
475036521095608;0.4513;8.7197;1.5299;
475036541096377;-0.9266;9.6929;-0.4992;
475036561117800;-0.7326;10.6985;-1.5239;
475036581116031;-0.1736;9.5780;1.0499;
475036601106415;0.0922;8.6503;0.7949;
475036621113377;-0.9242;9.8485;-1.1899;
475036641076992;-0.7003;10.6458;-1.4976;
475036661082069;-0.0730;9.5996;2.3966;
475036681087761;-0.5674;9.9719;1.9585;
475036701102223;-0.4513;10.8386;-0.7733;
475036721089607;-0.8021;9.5457;1.3096;
475036742968954;-0.1652;9.1806;2.0889;
475036761065646;-0.3711;10.7823;0.7207;
475036781518607;-0.6512;10.7141;1.2342;
475036801031184;-0.0048;9.5624;2.5750;
475036821137453;-0.3376;9.8138;1.0331;
475036841057723;-0.5447;10.5177;0.4776;
475036861046953;-0.6189;9.8785;1.4784;
475036881110223;0.2095;9.3458;2.9317;
475036901112223;-0.6033;10.3837;1.9704;
475036921098953;-0.3974;10.4651;0.4250;
475036941109261;0.4980;9.1267;1.8375;
475036961111646;-0.5495;9.8976;1.1157;
475036981163646;-0.9290;11.0397;-0.5243;
475037001114723;0.0982;10.1191;1.0630;
475037021106799;0.8990;8.7053;1.4389;
475037041100646;0.8380;9.2249;0.7733;
475037061110992;-0.7326;10.2723;0.5830;
475037081111146;0.0084;10.4363;0.4561;
475037101101222;0.8104;9.3781;2.5187;
475037121091261;-0.2382;9.4260;2.1799;
475037141095761;-0.2119;10.3142;0.9146;
475037161176184;0.3615;9.8713;1.0163;
475037181108222;0.9708;9.5050;1.0558;
475037201183492;-0.0742;8.8669;1.0475;
475037221089953;-0.5016;9.1554;0.1161;
475037241084569;0.6345;9.2404;0.5531;
475037261089069;0.8966;9.1267;2.0279;
475037281167684;-0.4322;9.1901;2.0794;
475037301084415;-0.3041;9.4846;-0.2059;
475037321092568;0.2023;9.1530;1.0786;
475037341116415;0.4836;9.5756;1.1923;
475037361092761;0.2023;9.6510;1.1803;
475037381014607;-0.5447;8.9364;1.8854;
475037401032838;-0.6752;9.1159;2.2266;
475037421081376;0.5926;10.2197;1.6963;
475037441092838;0.3950;10.1586;0.4034;
475037461103415;-0.7769;9.3266;1.5862;
475037481113107;-0.0778;9.6295;1.1971;
475037501112991;0.7314;10.8781;0.7099;
475037521106645;0.0204;10.2496;0.5387;
475037541108645;-0.4381;9.3984;1.2713;
475037561138645;0.2837;9.6438;1.7142;
475037581106876;0.4202;10.6027;-0.0670;
475037601019838;-0.2490;10.5740;0.6381;
475037621184684;-0.4345;9.9072;1.9632;
475037641094107;0.1856;9.7085;0.9493;
475037661086261;0.4310;10.4830;0.6225;
475037681079184;-0.4178;10.1526;-0.4058;
475037701080184;-0.2322;9.1746;1.3216;
475037721100491;-0.1927;10.0688;1.0894;
475037741317145;-0.1197;10.2627;0.0587;
475037761036453;-0.2298;9.3613;1.1181;
475037781102799;0.4405;9.2129;0.4944;
475037801035799;-0.2119;9.8222;0.0790;
475037821008222;-0.4884;9.3913;0.9110;
475037841071453;0.0371;9.1889;0.8200;
475037861003337;-0.2358;9.6702;2.2841;
475037881103030;-0.6273;9.5756;0.0790;
475037901102222;0.2729;9.1470;2.2182;
475037921102491;-0.1053;9.1973;1.8447;
475037941103414;-0.7602;9.4535;1.2941;
475037961114183;-0.1401;9.8653;1.3288;
475037981196337;0.7326;9.5948;0.8811;
475038001099876;-0.7566;9.4200;2.4361;
475038021107606;-0.8045;10.3932;1.1732;
475038041102645;-0.0563;10.7033;-0.1927;
475038061099568;0.2298;9.4715;1.6281;
475038081088799;-1.3874;9.2296;2.3296;
475038101108106;-0.7446;10.5465;0.6416;
475038121092260;0.4501;10.6865;0.4872;
475038141097183;-0.0730;9.5948;2.0219;
475038161112376;-0.5602;8.9256;1.9429;
475038181113568;-0.4118;10.1885;0.5052;
475038201058376;0.3412;10.3693;1.7107;
475038221184145;-0.5686;8.9962;2.8874;
475038241093683;-0.7889;8.9926;1.6400;
475038261093452;0.0311;9.5600;0.8045;
475038281094837;-0.1053;9.7695;1.9082;
475038301092491;0.0994;9.2536;1.3360;
475038321176568;-0.5195;8.9388;2.2422;
475038341093760;-0.4501;9.0908;1.2725;
475038361098375;0.1018;9.4607;1.5119;
475038381170529;0.3639;9.5708;0.8835;
475038401087145;-0.1903;9.1686;2.1584;
475038421122222;-0.9098;9.0800;2.1727;
475038441091991;-0.2179;9.3314;1.6496;
475038461091722;0.2430;9.8078;1.1516;
475038481178260;-0.4788;9.4619;2.2015;
475038501093645;-0.7961;9.9180;2.3499;
475038521178991;-0.1556;10.2783;2.5175;
475038541097068;0.2083;10.1598;2.3882;
475038561182221;-0.0275;9.7683;2.0973;
475038581110914;-1.1887;9.8833;3.4237;
475038601175029;-0.1760;10.5249;1.8208;
475038621186452;-0.2538;10.1861;2.5738;
475038641097068;0.1496;10.0928;3.0514;
475038661083298;-0.5926;9.9850;4.1073;
475038681091260;-0.8056;10.9559;1.5921;
475038701092106;-0.2813;10.6135;1.3815;
475038721082298;-0.2478;9.3673;2.3200;
475038755903683;-0.4262;10.2999;0.2526;
475038781834183;-0.0096;9.6019;2.3715;
475038801010721;-0.3783;9.4870;2.3272;
475038821016875;0.1053;10.2651;0.9361;
475038841033029;-0.8787;9.8653;1.5574;
475038861034721;-0.7350;9.3733;1.9908;
475038881107144;0.2131;9.7396;2.3116;
475038901107337;0.2705;10.1155;2.0877;
475038921089452;-0.7039;10.0257;1.7873;
475038941095913;-0.0850;9.2859;1.8064;
475038961175106;-0.6141;9.3015;1.9752;
475038981198875;0.2789;9.9838;1.1432;
475039001101529;0.0395;9.8940;0.5207;
475039021141644;-0.6847;9.3422;2.2146;
475039041105106;-1.0008;8.4874;2.3367;
475039061186606;0.7195;9.7300;0.6452;
475039081163952;0.3783;10.1562;0.7207;
475039101175798;-0.3412;9.4763;1.9585;
475039121083760;-1.2570;8.7831;3.4165;
475039141109721;-0.3041;9.7300;2.9137;
475039161100990;0.5207;11.0169;1.4341;
475039181092683;-0.1293;9.9982;1.1815;
475039201194952;-0.7494;8.5461;2.4265;
475039221096452;0.2418;10.1394;1.5036;
475039241116490;0.5423;10.2532;-0.0108;
475039261112144;-0.6476;9.5026;1.8232;
475039281196452;-0.5531;8.8358;2.4624;
475039301113952;-0.0563;9.8270;1.4904;
475039321183375;-0.0431;10.3106;0.6237;
475039341101529;0.0563;9.8976;1.1779;
475039361095221;0.0072;9.5098;1.7777;
475039381119644;-0.4848;9.2069;1.9309;
475039401171836;-0.0946;9.8988;0.7721;
475039421019605;-0.0886;10.1562;0.9373;
475039441100952;0.0862;8.9352;1.9585;
475039461088567;0.0263;9.7049;1.7765;
475039481170567;-0.3268;10.6554;1.0762;
475039501177605;-0.6716;9.9168;2.1141;
475039521200913;-0.8248;9.2787;2.9880;
475039541094336;0.2334;10.1801;2.1284;
475039561072990;0.2514;9.8174;1.6460;
475039581081528;-0.7350;9.0010;2.7246;
475039601089413;-0.4800;9.5589;2.2027;
475039621015144;0.7997;10.0760;0.6081;
475039641095413;0.1401;9.2165;1.3276;
475039661083298;-0.4848;8.9088;2.0387;
475039681170721;-0.7733;9.5792;1.5191;
475039701171028;1.4820;10.0473;1.1205;
475039721010221;-0.1628;9.1542;2.2972;
475039740434490;-0.1305;9.7121;1.4413;
475039761000528;-0.1305;9.7121;1.4413;
475039781020336;0.6345;10.5919;0.8284;
475039801014951;0.6081;9.9886;1.8890;
475039821010413;-0.7817;8.3019;3.7781;
475039841009644;-0.3005;9.3458;3.1591;
475039860998336;0.6009;11.1630;1.4760;
475039881085067;1.0714;10.5500;0.9996;
475039901087567;-0.5842;8.4719;3.3124;
475039921085105;-0.1413;9.1040;2.9832;
475039941028182;0.7278;10.5967;1.2402;
475039961098144;0.5303;10.0257;3.3040;
475039981097797;-0.6117;9.2165;4.1970;
475040001112374;-0.8715;9.6822;2.7569;
475040021138643;0.2251;10.0161;2.7952;
475040041096643;0.2394;10.2460;1.2103;
475040061021259;0.2466;9.5648;1.5586;
475040081186682;-0.9972;8.4839;2.0818;
475040101186567;0.3292;9.2356;1.4066;
475040121100066;1.3396;9.9730;0.2131;
475040141116874;1.3695;8.9447;2.3547;
475040161112028;-0.8487;8.7424;2.4995;
475040181189836;-0.8068;9.1279;2.0063;
475040201115297;0.6800;9.0249;2.6767;
475040221115528;0.5243;8.7257;4.2581;
475040241006605;-0.2658;10.3693;2.9317;
475040261026874;-1.2522;10.2759;2.0925;
475040281098489;-0.2227;9.1710;3.4441;
475040301098566;2.0722;8.4934;4.6687;
475040321120297;0.5710;9.7300;3.5374;
475040341098874;-1.3336;10.2113;2.7797;
475040361100143;-0.3567;9.3709;4.0175;
475040381185566;1.1564;8.8897;4.5406;
475040401119259;0.4106;9.7432;2.5187;
475040421093489;-0.5231;10.2771;1.8783;
475040441090759;-0.5854;10.0185;2.7952;
475040461092874;1.2534;9.7324;2.9018;
475040481171489;-0.1999;9.3649;3.5326;
475040501171259;-0.2586;9.6534;2.3451;
475040521084643;0.4968;9.6283;2.3535;
475040541092720;0.1460;9.3745;3.1939;
475040561087220;0.5590;10.0090;3.5350;
475040581260643;-0.0670;10.3394;1.7107;
475040601097451;-0.2382;9.3314;2.7210;
475040621098951;0.0838;8.6945;3.4046;
475040641026374;1.0116;9.7887;2.8443;
475040661086028;0.5267;10.5405;1.8974;
475040681168758;-0.9601;9.1866;3.6200;
475040701169451;0.5195;9.2895;3.4488;
475040721087220;0.6979;9.9970;2.8204;
475040747444066;0.7673;9.6714;2.4636;
475040781023797;0.6309;9.7420;3.4632;
475040801013951;0.3567;9.7073;1.7394;
475040821051835;0.5267;9.5648;2.6264;
475040841053566;0.2274;9.5672;4.2258;
475040861046681;0.5148;9.7193;3.0382;
475040881096681;0.8691;10.2939;2.6923;
475040901113951;-0.1329;9.2751;3.5470;
475040921043489;0.3543;9.1722;3.9923;
475040941034143;0.7590;10.1239;2.5798;
475040961098951;0.2215;9.3541;3.8678;
475040981193989;0.0539;9.0333;3.3279;
475041001110874;0.2274;9.4176;3.4800;
475041021018527;-0.1006;9.9491;2.2458;
475041041103681;0.4764;8.8837;3.3136;
475041061086874;0.6632;8.6718;3.1149;
475041081169066;0.0826;9.0381;1.8854;
475041101171797;0.2729;9.0477;1.8747;
475041121084643;0.5064;8.8813;3.0586;
475041141084912;1.1085;9.3506;2.5402;
475041161082950;-0.2239;8.7616;3.6547;
475041181178797;-0.0563;9.0285;3.7972;
475041201104104;1.0020;9.4691;3.1161;
475041221092296;0.1580;9.2979;3.3088;
475041241236143;0.5746;9.5648;3.8774;
475041261077950;0.0694;9.3434;4.0761;
475041281099604;0.7841;9.7863;3.0011;
475041301183681;0.0958;10.1095;3.0442;
475041321096758;0.4357;9.2727;3.9744;
475041341098796;0.8128;9.7348;2.3930;
475041361099143;0.7207;10.0173;3.1508;
475041381182412;-0.1484;9.3613;4.7477;
475041401185681;0.0323;9.5277;3.4656;
475041421115950;1.0331;10.0042;0.8739;
475041441133873;0.7853;9.5517;4.5753;
475041461094527;0.3316;9.2763;4.4748;
475041481098181;-0.6680;9.8533;2.6564;
475041501180258;0.5698;10.1993;2.5618;
475041521169065;0.9661;9.0824;4.2545;
475041541081565;-0.6273;8.6730;5.0601;
475041561089027;0.6045;10.0892;3.2956;
475041581139373;0.9266;9.7085;3.3842;
475041601029027;0.6716;8.6933;4.8758;
475041621168296;0.0012;8.9220;2.8371;
475041641081796;0.2370;9.5217;1.3539;
475041661094450;0.6536;8.8873;3.7062;
475041681083835;0.5411;8.8849;4.2389;
475041701083835;-0.2993;9.8282;2.6025;
475041721018065;-0.1041;8.3354;4.7800;
475041739768007;0.2670;10.1502;3.9109;
475041761085181;0.2670;10.1502;3.9109;
475041781016181;0.3376;9.7444;3.1651;
475041801011950;-0.1568;8.5569;4.1372;
475041821002411;0.7171;8.7101;4.7250;
475041841004527;0.7554;9.7288;4.2952;
475041861037642;0.5662;10.1634;3.0957;
475041881044527;0.3304;9.0824;4.5466;
475041901169834;-0.1508;8.5389;5.0637;
475041921178142;0.7326;9.7791;3.9229;
475041941084181;0.3663;9.6786;3.6739;
475041961092065;0.6416;8.5114;5.3307;
475041981091911;0.0144;9.2943;3.0718;
475042001100296;1.1624;9.4032;1.8902;
475042021104065;1.4066;8.6287;2.8515;
475042041107411;0.3244;8.5988;4.6124;
475042061146065;0.1329;10.2544;3.4740;
475042081038142;0.3687;9.6941;3.5039;
475042101165065;1.4114;8.4025;5.1691;
475042121191757;1.0439;8.8885;4.3551;
475042141080834;0.2646;10.1323;3.2489;
475042161089411;-0.4034;10.1789;3.3854;
475042181091988;0.4848;8.5413;5.6312;
475042201092603;1.3898;9.6103;4.4700;
475042221093180;0.2969;10.1778;3.5686;
475042241184142;0.0120;9.2584;4.4269;
475042261100796;-0.0156;8.1930;5.4708;
475042281110603;1.5538;9.5589;3.6176;
475042301097603;0.5531;10.0461;2.5450;
475042321179257;0.0826;8.6263;4.9596;
475042341184796;0.4130;9.1482;5.5282;
475042361098142;-0.1879;10.1430;2.9473;
475042381113642;-0.0503;9.9635;2.8635;
475042401189373;0.5578;8.2205;4.8710;
475042421089026;1.0558;8.1810;3.5075;
475042441157334;-0.9194;8.0409;1.8639;
475042461175526;-0.8930;5.7628;2.6887;
475042481095334;1.9788;8.2971;5.2840;
475042501096565;5.2122;11.9830;5.3905;
475042521183565;3.0957;12.9969;3.7960;
475042541183872;-4.4903;10.1370;0.2286;
475042561095796;-5.2840;3.5362;4.9668;
475042581127142;4.0378;7.4855;6.8630;
475042601092142;8.7963;17.3089;1.7442;
475042621170757;-0.4992;16.1968;-0.3316;
475042641178719;-4.5310;8.8286;4.1324;
475042661112449;-2.2314;6.1627;6.8486;
475042681023565;4.0270;12.6115;0.4154;
475042701087642;0.1197;14.2575;-0.8847;
475042721093295;-3.4596;8.1726;5.6407;
475042741360718;0.0922;8.5042;4.9835;
475042761029065;2.1823;11.7076;-1.5981;
475042781180026;0.7266;10.1825;-0.6548;
475042801031872;-3.2441;5.4947;4.2772;
475042821060718;-0.7458;6.4392;4.1934;
475042841062488;5.7940;11.2180;-0.2083;
475042861054949;2.8467;11.9135;-6.9719;
475042881093949;-3.9169;9.4703;-4.7800;
475042901087026;-4.5562;5.3103;2.2458;
475042921112218;3.4261;8.2684;2.0183;
475042941112103;4.6364;11.4994;-3.3950;
475042961097603;-1.3336;9.0225;-1.2091;
475042981110103;-2.1069;7.9224;2.5714;
475043001110988;0.8966;10.7703;0.1784;
475043021113834;2.8443;11.7256;-1.6221;
475043041094103;0.5447;10.1359;0.1257;
475043061120834;-1.0798;7.8434;2.9173;
475043081100180;-0.2705;8.7819;1.2246;
475043101192564;1.7011;10.5632;-0.5004;
475043121105372;0.7602;10.2615;0.9673;
475043141103987;-1.4820;9.2787;2.0590;
475043161226757;-0.9864;9.6055;1.3012;
475043181114180;1.0822;9.9862;0.3579;
475043201150410;0.6033;8.9519;1.5299;
475043221071987;0.0491;9.3134;1.2486;
475043241074333;0.3005;9.7097;0.8751;
475043261122141;1.3060;9.8378;1.4437;
475043281102372;1.5742;9.9742;1.4293;
475043301095257;0.8918;10.0999;0.6620;
475043321081218;1.3647;10.2651;0.2430;
475043341168487;1.0534;9.5062;1.2941;
475043361084256;1.3216;8.7604;2.1775;
475043381115718;1.4676;9.8797;1.0810;
475043401178372;1.8842;10.2651;-0.1568;
475043421110795;0.7649;9.4846;1.0606;
475043441113141;0.4824;9.2943;2.9102;
475043461113833;1.3108;10.1897;0.8978;
475043481103795;1.3288;10.1011;1.8974;
475043501097910;0.3651;8.3043;1.0439;
475043521178603;0.2813;9.1842;2.4780;
475043541179679;0.5339;10.0892;2.6049;
475043561183949;1.0427;9.8701;1.3252;
475043581118295;0.5722;8.5952;0.6141;
475043601009718;0.4046;8.3330;2.1859;
475043621166987;0.9433;9.6331;1.9118;
475043641186526;1.5957;10.4531;-0.0120;
475043661113679;1.2486;10.2304;1.0738;
475043681020910;0.8009;9.8653;1.8866;
475043701101872;0.8368;9.7229;0.7865;
475043721015679;1.6472;11.7364;-2.3367;
475043748387679;1.3084;10.5572;0.9517;
475043781028333;2.3391;9.9850;0.3759;
475043801004833;1.6065;12.7048;-4.2282;
475043821011910;1.1911;10.8673;-0.3950;
475043840995295;1.9585;7.3119;4.8710;
475043861035718;2.2458;10.7978;-0.1077;
475043881042525;1.6700;13.3333;-4.7190;
475043901048602;1.1720;10.3908;-1.9513;
475043921093910;1.8866;6.6403;3.8451;
475043941109756;1.6496;11.9698;-1.4976;
475043961109679;0.8128;12.3086;-3.0394;
475043981098256;0.8021;8.3330;2.6552;
475044001092756;2.0542;7.9260;3.7230;
475044021074525;1.3216;11.2300;-2.2302;
475044042573525;0.4788;11.3545;-2.9640;
475044061132948;-0.2239;8.4204;1.3563;
475044081070371;1.1815;8.0481;2.0770;
475044101074833;1.0690;10.4854;-1.8675;
475044121046948;0.4226;10.4351;-2.5223;
475044141077525;0.3615;8.3845;0.1293;
475044161102217;1.4054;8.5569;0.3771;
475044181041141;1.4341;9.9216;-1.8699;
475044201044487;1.3276;9.5253;-0.2370;
475044221182756;2.4086;9.2632;1.0666;
475044241099025;1.3527;10.5381;-0.7470;
475044261205410;1.3192;10.2675;-1.1516;
475044281021025;2.5402;9.5170;-0.1377;
475044301099025;2.7737;9.2644;1.6101;
475044321177987;0.4214;9.9754;0.8499;
475044341176448;0.4824;10.6901;-0.3926;
475044361184217;1.3551;10.4663;-0.0323;
475044381106179;1.1277;9.6594;0.8416;
475044401068410;-0.3232;9.6115;1.4820;
475044421176525;-0.9900;10.4172;-0.1101;
475044441093717;1.5000;9.9395;0.9517;
475044461109563;1.7705;9.6534;1.0618;
475044481105140;-0.0611;10.2987;0.0156;
475044501103525;-0.3735;9.7576;0.4010;
475044521182525;1.4102;9.3913;0.8440;
475044541183948;2.0446;9.2165;0.1592;
475044561190871;0.9804;9.5193;0.0335;
475044581096602;1.2594;9.1698;0.5399;
475044601088025;1.8699;9.7001;0.0910;
475044621168294;2.5283;9.8533;-0.5028;
475044641087486;2.4277;10.4100;-1.1624;
475044661113563;0.9912;8.7556;0.4513;
475044681101448;1.9106;9.7181;-0.1448;
475044701115525;2.7210;10.5129;-1.3910;
475044721027679;0.7566;9.4942;0.2969;
475044745225563;0.2047;8.7532;2.2302;
475044781017140;1.9656;10.1011;-0.3831;
475044801008871;0.2705;9.4487;-0.2514;
475044821081332;-0.2550;8.3965;1.5203;
475044841098871;-0.1484;9.4020;1.0642;
475044861052525;0.8021;10.2197;-0.4286;
475044881012563;-0.2095;9.3458;1.1516;
475044901113486;-0.8092;8.6167;1.7334;
475044921105832;-0.3029;9.4487;0.8416;
475044941166871;0.5686;10.1658;0.9625;
475044961169525;0.4956;9.1566;1.5012;
475044981085409;-0.0563;9.2225;0.9062;
475045001111371;0.2825;10.0796;0.3256;
475045021041178;0.9278;10.2077;0.3436;
475045041023025;0.8930;9.7444;0.8942;
475045061076024;0.2334;9.6103;1.0271;
475045081014794;0.0072;9.8761;1.0391;
475045101104678;0.8045;9.9982;1.1408;
475045121109101;1.2007;9.8138;0.9792;
475045141092524;0.0670;9.4068;1.4222;
475045161167294;-0.6069;9.7133;1.6125;
475045181044717;0.7661;10.1215;0.5351;
475045201027063;0.4573;9.6965;0.8404;
475045221039640;-0.3843;9.3865;1.2450;
475045241039332;-0.7530;9.4739;1.3503;
475045261033255;-0.5052;9.6582;1.1756;
475045281016524;-0.6476;9.5924;1.1193;
475045301015909;-1.0858;9.0836;1.7262;
475045321019101;-1.0762;8.9783;1.6616;
475045341030486;-0.6835;9.4858;1.1121;
475045360999370;-0.7386;9.4858;1.1648;
475045381023563;-1.1827;9.4284;1.4401;
475045401013755;-1.5670;9.5612;1.8663;
475045421010140;-1.4940;9.9862;0.8523;
475045441106717;-1.1073;9.3841;1.6089;
475045461043486;-1.1648;9.1770;2.4397;
475045481041024;-1.7346;10.0640;1.3455;
475045501038101;-1.9489;10.5022;0.4034;
475045521039870;-1.6221;9.1303;1.5933;
475045541102793;-1.4748;8.7340;2.2242;
475045561008140;-1.2139;9.6019;1.2186;
475045581012678;-1.5490;10.1502;1.1648;
475045601018063;-1.2857;9.5373;1.2294;
475045621010870;-1.5909;9.1542;1.2294;
475045641105139;-1.5143;9.4152;1.0942;
475045661010024;-1.4389;9.5852;0.8535;
475045681012370;-2.3104;9.7468;1.9429;
475045701117101;-2.1344;9.6438;2.1943;
475045721034947;-1.8459;9.7540;1.6999;
475045742720447;-2.0554;9.7372;1.0499;
475045761726755;-2.1632;9.7205;0.9649;
475045781101293;-2.0004;9.7276;1.2115;
475045801019986;-2.3224;9.6355;1.4784;
475045821057293;-2.6995;9.5014;1.2905;
475045841002832;-2.8922;9.3793;0.9361;
475045861050870;-1.8328;9.4739;0.9685;
475045881049293;-1.7154;9.4978;1.1384;
475045901066909;-2.7210;9.2739;1.4664;
475045921046524;-3.3531;9.4355;1.3252;
475045941111370;-2.2589;9.1279;0.7051;
475045961105255;-1.5155;9.3003;0.8009;
475045981110447;-1.4461;9.8342;0.5938;
475046001106370;-2.3894;9.7803;1.2186;
475046021102178;-2.4840;9.3817;0.7781;
475046041112216;-2.1548;9.4032;1.8806;
475046061102447;-2.2422;9.5313;1.7298;
475046081106524;-2.3595;9.7671;0.8954;
475046101113216;-2.2841;9.4224;1.4006;
475046121107870;-2.4193;9.2943;1.5323;
475046141041870;-2.4576;9.4571;1.4808;
475046161032254;-3.3267;9.6271;1.0032;
475046181033639;-3.2250;9.1961;0.8859;
475046201022293;-2.2661;9.5313;1.2151;
475046221028947;-2.6169;9.3661;1.0965;
475046241043601;-3.3866;9.2727;1.4246;
475046261038370;-3.7122;9.3925;1.6520;
475046281033177;-3.8726;9.8426;2.1272;
475046301117524;-4.2808;9.7600;2.0111;
475046321029408;-4.0881;9.2153;1.4856;
475046341017370;-3.4895;8.9172;1.8292;
475046361026793;-2.9377;9.4619;1.4461;
475046381020293;-3.4213;9.9934;0.8894;
475046401018139;-3.2465;10.0437;1.4844;
475046421036370;-3.0777;9.2775;0.9613;
475046441040639;-4.0989;9.3841;1.5299;
475046461041216;-3.7242;9.8964;0.9242;
475046481029139;-2.9125;9.6175;0.8344;
475046501033023;-2.8838;9.1662;1.4976;
475046521036062;-3.0155;9.4535;1.4617;
475046541038062;-3.4560;9.4571;1.2091;
475046561041293;-3.3411;9.2979;1.4629;
475046581035754;-3.2681;9.0680;0.9301;
475046601092600;-2.7414;9.4930;0.8392;
475046621021716;-2.2374;9.6570;0.8559;
475046641036985;-2.8084;9.1854;1.7526;
475046661072677;-4.1432;9.5708;2.0099;
475046681009677;-3.1520;9.8330;0.8452;
475046701023139;-2.8264;9.5421;1.7609;
475046721110600;-4.2485;9.2033;2.2637;
475046741041946;-4.3359;9.2907;1.0965;
475046761012408;-3.1424;9.5325;1.1313;
475046781075677;-2.3427;9.6091;1.8507;
475046801007254;-4.2018;9.5397;2.1608;
475046821081908;-4.8483;10.2819;1.6939;
475046841002485;-4.3622;9.5828;2.1584;
475046861048062;-2.4205;9.1566;2.0195;
475046881054869;-2.7126;9.3458;2.0770;
475046901070369;-4.6639;10.2029;1.6257;
475046921056408;-4.3072;9.0142;1.8328;
475046941048485;-3.3363;8.7747;2.4253;
475046961053677;-3.8211;9.2392;2.2494;
475046981102908;-4.3215;9.8557;1.0714;
475047001191869;-4.0893;9.6187;1.2965;
475047021098446;-3.3435;9.3146;1.8112;
475047041114177;-3.7924;9.3362;1.9848;
475047061115254;-4.1360;10.0904;1.3096;
475047081107985;-5.2744;9.9778;1.2941;
475047101103369;-4.8052;9.1099;2.1596;
475047121039023;-3.3698;9.1770;2.8431;
475047141094177;-2.9844;9.7695;2.1261;
475047161170831;-4.9488;9.6929;1.4928;
475047181081369;-4.8518;9.2572;2.2697;
475047201081331;-3.0682;9.7025;1.9058;
475047221091408;-3.7709;9.9156;1.2977;
475047241178984;-5.3774;9.5972;2.0506;
475047261199023;-4.5969;9.6319;2.0171;
475047281108254;-3.4393;9.8378;1.4042;
475047301107638;-3.7242;9.2895;2.6336;
475047321038946;-5.2804;9.6019;2.1081;
475047341087831;-4.8698;9.6319;0.8595;
475047361176484;-3.3998;9.0728;0.9732;
475047381177677;-3.7050;8.5138;1.8651;
475047401181023;-4.6998;9.4044;0.6979;
475047421094600;-3.4584;9.6235;1.8316;
475047441093484;-3.0526;8.9651;2.3870;
475047461095177;-4.0522;9.4403;1.4820;
475047481105677;-4.6376;10.0509;1.3001;
475047501040523;-3.6595;9.6031;1.2570;
475047521038446;-3.5063;9.3637;2.2362;
475047541088177;-3.9792;9.4774;2.3846;
475047561167792;-3.7469;10.3166;0.7913;
475047581180253;-3.6380;9.4990;1.2354;
475047601092984;-4.2222;9.0166;1.6508;
475047621080715;-4.5155;9.8270;0.9936;
475047641084215;-3.9217;10.4483;0.3855;
475047661097369;-3.8008;9.5852;0.9505;
475047681091946;-3.7469;8.9651;1.7178;
475047701090523;-3.5422;10.1873;1.1756;
475047721103100;-3.7769;10.0592;1.2725;
475047741166330;-4.3311;9.1351;2.0722;
475047761032446;-4.1611;9.0082;1.6987;
475047781208253;-3.4919;9.7743;0.7769;
475047801091792;-3.0993;10.0233;0.6536;
475047821022753;-4.1863;9.6055;1.0678;
475047841033869;-4.2210;9.6989;0.8547;
475047861047484;-3.9133;10.0090;0.5112;
475047881048099;-3.9385;9.7803;0.8416;
475047901047022;-4.4963;9.5241;1.1516;
475047921123215;-4.5454;9.5134;0.6381;
475047941095830;-3.4860;9.6450;0.0287;
475047961177330;-3.7804;9.5768;0.6632;
475047981116484;-4.7669;9.3051;1.1277;
475048001090484;-5.6168;9.4092;0.9589;
475048021095830;-3.9456;9.9647;0.7422;
475048041087445;-3.3411;9.4535;1.1648;
475048061021561;-4.5250;8.9172;1.8687;
475048081105484;-5.5737;9.5565;0.9577;
475048101102407;-4.6328;10.2687;1.4820;
475048121083061;-4.5418;9.7827;1.6496;
475048141118792;-4.6040;9.2189;1.9405;
475048161118292;-4.6376;9.3051;1.6843;
475048181103022;-4.1934;9.9060;1.4174;
475048201034791;-4.3898;9.5217;2.1428;
475048221005753;-4.6843;9.6965;2.0865;
475048241029830;-4.9321;9.7516;1.2091;
475048261018253;-4.4520;9.5732;1.0511;
475048281038176;-4.6495;9.0800;1.4641;
475048301011599;-4.1001;9.1111;1.7226;
475048321006945;-4.4688;9.1387;1.5335;
475048341038291;-5.3618;9.4882;0.8045;
475048361031638;-4.8590;9.4882;1.0151;
475048381009407;-3.3076;8.9998;1.1875;
475048401009176;-4.0414;8.7269;1.0391;
475048421007945;-4.9919;9.4846;1.6233;
475048441102176;-4.1695;9.3242;1.5550;
475048461069137;-3.5877;9.0848;1.8088;
475048481011061;-5.0170;9.1614;1.9824;
475048501005214;-5.3295;9.3565;1.5694;
475048521071214;-4.1515;9.2464;1.9429;
475048541004137;-4.2772;9.3410;2.3260;
475048561036676;-5.2457;9.6762;1.9632;
475048581011522;-5.4037;9.7252;1.7154;
475048601018676;-4.4568;9.6618;2.1057;
475048621033945;-4.6376;9.6750;2.4229;
475048641015560;-4.8985;9.9539;2.1632;
475048661104099;-5.1846;9.6426;1.0534;
475048681035945;-3.9911;9.1662;1.7741;
475048701105214;-4.4281;9.1518;1.3372;
475048721025099;-4.4987;9.0788;0.9074;
475048745404214;-3.8199;9.4344;1.3886;
475048781081022;-4.0857;9.2117;1.1073;
475048801016983;-4.3574;8.9830;0.9756;
475048821014406;-3.6344;9.0477;0.8368;
475048840998022;-4.2246;9.1111;1.1061;
475048861111329;-5.5701;9.0848;1.1408;
475048880994445;-5.1559;8.7029;1.6616;
475048901046137;-4.0486;8.6586;2.0614;
475048921043099;-5.2672;9.7001;0.2969;
475048941007791;-4.4879;9.2332;0.7039;
475048961056791;-3.7397;8.3091;1.7430;
475048981031406;-2.9808;9.4212;1.8783;
475049001169945;-3.9995;10.5070;1.6053;
475049021089829;-4.7441;9.8773;1.6472;
475049041178752;-4.7681;9.3901;2.3080;
475049061114060;-3.2525;9.7384;2.0734;
475049081107137;-3.3926;10.2077;2.0794;
475049101093675;-3.9373;9.6929;2.1320;
475049121095406;-4.2748;9.3003;2.1033;
475049141177752;-3.4165;9.9120;1.1049;
475049161069752;-2.8527;10.1538;1.0750;
475049181104829;-4.6735;9.2189;2.0482;
475049201180291;-4.9835;9.3087;2.1668;
475049221085637;-4.3790;9.6582;1.4581;
475049241028945;-3.9983;9.1447;1.8866;
475049261024175;-5.0853;8.8119;2.1620;
475049281040598;-5.7305;8.6311;2.3104;
475049301041906;-4.5418;8.6383;1.5598;
475049321025329;-1.8328;9.7145;-0.3926;
475049341026021;-4.2461;9.4703;-0.6656;
475049361067098;-5.8514;9.5493;1.1337;
475049381099021;-3.8618;9.3122;1.4952;
475049401180906;-3.6129;9.8102;0.6764;
475049421084368;-4.7657;9.7193;1.5694;
475049441081444;-4.7345;9.7205;1.2785;
475049461079906;-3.8080;9.6774;1.3420;
475049481089060;-3.7804;9.8641;1.6017;
475049501107367;-4.3395;10.1969;1.5598;
475049521117714;-5.2158;9.8067;-0.0599;
475049541028560;-3.8223;9.0956;2.2972;
475049561060137;-3.0801;9.1459;3.4991;
475049581095867;-3.8618;10.5919;1.0187;
475049601016483;-4.6052;9.7911;1.4377;
475049621094483;-4.0259;8.6299;2.4948;
475049641093944;-2.9616;8.7664;2.0698;
475049661089983;-4.2964;9.6295;0.6452;
475049681094906;-5.3822;8.9004;1.6221;
475049701095944;-3.8642;8.6886;1.6580;
475049721090290;-1.6640;9.2871;0.4034;
475049752629713;-4.4975;9.0453;1.6652;
475049781945598;-4.1444;9.0417;0.9589;
475049801010060;-3.0514;9.7983;-0.0503;
475049821191483;-3.7493;9.1411;0.6644;
475049841045636;-4.7154;8.5222;1.5311;
475049861055406;-4.3096;9.4427;1.0690;
475049881133290;-2.4421;10.3489;-0.4836;
475049901062675;-3.1855;9.4140;0.7434;
475049921116021;-5.0661;8.0900;3.0849;
475049941104021;-3.2765;9.9228;1.0199;
475049961082213;-2.3882;10.6051;0.8847;
475049981075483;-3.3375;9.2811;2.4086;
475050001080559;-4.0953;9.2560;2.5307;
475050021052559;-3.0789;10.4507;1.4688;
475050041082136;-2.5750;10.4519;1.5850;
475050061086636;-3.5590;9.5086;2.0470;
475050081090944;-4.1958;9.4739;1.4700;
475050101089252;-3.2310;10.1993;1.7705;
475050121116521;-2.1560;10.2675;3.0466;
475050141086944;-3.6057;9.6403;1.5993;
475050161093675;-3.5075;9.5337;1.7573;
475050181105905;-2.6085;9.5409;2.3343;
475050201180482;-2.5714;9.9958;2.0363;
475050221170828;-3.6571;10.0952;1.8004;
475050241099021;-3.8259;9.1997;2.4864;
475050261097559;-2.9868;9.7300;2.3224;
475050281125559;-2.9604;9.8892;1.8962;
475050301117521;-3.6739;9.7815;1.4868;
475050321108636;-3.9576;9.4116;1.6508;
475050341093867;-3.3639;9.9455;2.0865;
475050361172867;-2.9341;10.0018;1.3503;
475050381094213;-3.8738;9.7899;1.8304;
475050401180982;-3.9133;9.6798;0.6225;
475050421169021;-2.5630;9.7995;0.2861;
475050441082213;-3.2848;9.7432;0.4549;
475050461176636;-3.7397;9.5170;0.9685;
475050481090751;-2.6971;9.1327;1.3515;
475050501105021;-2.4972;9.4763;0.3328;
475050521042559;-2.8096;9.8737;0.4405;
475050541100828;-2.9975;9.5122;1.6173;
475050561104213;-2.7701;9.1949;1.5730;
475050581093636;-2.4553;9.4559;0.3292;
475050601196597;-1.9573;9.5337;0.4908;
475050621083867;-1.9441;9.2560;0.7135;
475050641083021;-2.2901;9.7755;0.4369;
475050661178944;-3.3172;9.6582;1.3372;
475050681090636;-1.9656;9.1770;2.0075;
475050701089290;-1.4772;9.7552;1.2330;
475050721090713;-1.5826;10.3094;0.2909;
475050741062290;-1.8112;9.4906;1.5802;
475050761532136;-1.2115;9.2440;1.6149;
475050781024251;-0.6225;9.8497;-0.1712;
475050801012482;-1.0427;9.8797;-0.1257;
475050821012482;-1.2605;9.6043;1.1313;
475050840997213;-0.7901;9.9180;1.1169;
475050861083136;-0.7685;10.4303;1.0618;
475050881083290;-1.9178;10.4028;1.4988;
475050901082520;-1.7933;10.0437;1.0654;
475050921092136;-0.0563;10.0568;1.4293;
475050941095097;-0.4010;9.9060;1.7466;
475050961094751;-1.4389;9.8749;1.6652;
475050981159713;-1.0822;9.9036;1.2953;
475051001097020;-0.1293;9.7648;1.4617;
475051021170713;0.0754;10.0437;0.6943;
475051041086751;-0.1652;9.7803;0.7973;
475051061179751;-0.4058;9.4308;1.6101;
475051081110674;-0.2167;9.9862;1.0511;
475051101114828;0.4010;9.9659;1.7047;
475051121116212;0.4393;9.4846;1.7861;
475051141118097;-0.1269;9.7097;0.7673;
475051161105366;-0.2550;9.4547;-0.4298;
475051181123328;0.6093;9.1889;0.4896;
475051201036328;0.0922;9.5768;0.0012;
475051221109559;-1.3156;9.9276;-0.5136;
475051241022059;-0.4094;9.3230;0.6345;
475051261099405;0.1688;9.3194;0.9637;
475051281092828;0.6656;9.5756;1.1803;
475051301087366;0.0874;9.9204;1.0068;
475051321177289;-0.2490;9.7887;1.0690;
475051341093212;0.7063;9.8043;1.2462;
475051361095174;1.5347;10.0317;0.9697;
475051381141289;1.4976;10.4579;0.6213;
475051401093405;0.8511;9.9120;1.1265;
475051421109405;1.2905;9.7552;0.6500;
475051441089289;1.6149;10.0688;1.1959;
475051461171097;0.8559;9.9707;1.9848;
475051481181481;1.0834;9.7037;1.6149;
475051501093405;2.1644;9.9180;1.1061;
475051521107174;1.8220;9.7432;0.7997;
475051541088597;0.7111;9.1016;2.2410;
475051561187404;0.7901;9.5098;1.9309;
475051581142020;1.2977;10.5393;1.1253;
475051601133328;1.5921;10.2340;0.8535;
475051621069251;1.1313;9.0453;1.9992;
475051641069674;0.9816;9.0429;2.1344;
475051661083020;1.5550;10.9990;-0.3077;
475051681099135;0.8906;10.1287;0.4357;
475051701089404;0.9445;9.5313;1.1217;
475051721089174;1.4461;9.4439;1.4664;
475051741026712;1.7514;10.3968;0.9876;
475051761029712;2.1656;10.3370;0.3124;
475051781052597;1.2294;9.7241;1.3707;
475051801016712;0.9685;9.5948;2.0901;
475051821011981;0.9996;10.1610;0.5914;
475051841004558;2.0734;10.4722;0.6416;
475051861041520;1.3515;9.4774;1.7490;
475051881085404;0.5818;9.1925;1.6771;
475051901097981;1.6328;10.0772;0.9206;
475051921033020;1.7202;9.5289;1.0199;
475051941033943;1.1444;9.2273;1.7597;
475051961089058;1.2007;9.5205;0.5303;
475051981096250;2.5798;9.3625;0.2514;
475052001205596;3.0490;9.5936;0.4046;
475052021104289;1.7131;9.7252;1.2031;
475052041090520;0.4908;9.5541;1.2977;
475052061168827;1.5227;9.6558;0.2227;
475052081084750;3.0358;9.7564;-0.0227;
475052101179135;3.0191;9.4188;0.7817;
475052121093173;1.9944;8.9699;0.8930;
475052141123327;1.6735;9.5265;0.0335;
475052161095212;2.0758;10.4806;0.7135;
475052181115096;1.6400;9.8869;1.2306;
475052201097135;1.2869;9.1686;1.6161;
475052221114289;1.2390;9.4140;0.7147;
475052241113866;1.7083;9.8904;0.9170;
475052261109366;2.0746;9.5780;2.2996;
475052281116404;1.4772;9.5648;2.2769;
475052301117635;0.7673;10.1119;1.7131;
475052321114789;0.5866;9.9922;1.6664;
475052341107365;0.7075;9.3326;1.8507;
475052361105519;1.3874;9.1099;1.5957;
475052381115712;2.2781;9.3218;1.2498;
475052401013596;1.2641;9.0812;1.8172;
475052421115096;0.9301;9.1459;1.2881;
475052441177635;1.8004;9.3051;0.6045;
475052461094519;2.1763;9.2213;1.7849;
475052481097481;2.2972;9.3649;1.5502;
475052501110096;1.4688;9.6702;0.8212;
475052521111250;2.6887;9.6462;1.4688;
475052541090865;2.4792;9.3015;0.7350;
475052561095596;1.2653;9.3577;1.7083;
475052581102942;0.9062;9.8545;2.1691;
475052601043904;2.6205;10.0161;1.1959;
475052621011788;3.0813;9.7109;1.1025;
475052641072981;2.3176;9.1016;0.8655;
475052661100750;2.4684;9.1375;1.1815;
475052681091134;2.0590;9.7085;1.0750;
475052701081288;0.2598;9.9204;0.2047;
475052721090173;-0.0371;9.1662;0.8308;
475052741025365;0.8284;8.4252;1.4988;
475052761017404;1.9190;9.6738;1.0678;
475052781263096;3.0598;9.5708;1.4425;
475052801006173;2.7892;9.1075;3.3028;
475052821005557;-0.2741;9.2428;2.5582;
475052840996788;-0.3112;9.4355;1.2139;
475052861033673;2.5654;9.5146;2.7593;
475052881167134;2.4876;10.9307;-0.1257;
475052901171980;0.4752;10.0221;0.6369;
475052921090827;1.0247;8.6646;3.3088;
475052941103827;1.9130;9.5457;1.8890;
475052961096057;2.0195;10.7320;-0.1053;
475052981098480;1.7286;9.6043;1.2282;
475053001103211;1.3970;8.7616;3.1101;
475053021185711;2.1452;9.9599;1.0846;
475053041094557;1.8340;10.2747;0.4525;
475053061094980;1.9453;8.9459;2.4636;
475053081172750;1.6017;8.5293;3.9456;
475053101087980;0.9170;9.7181;1.3408;
475053121111326;0.4992;10.0221;1.6544;
475053141111057;1.1468;8.5413;3.8463;
475053161034326;2.0770;9.6905;3.5829;
475053181177173;3.5494;11.6203;0.2825;
475053201090096;3.5350;9.7061;1.6245;
475053221094749;1.6245;7.8159;3.9648;
475053241041096;0.5578;9.5936;1.5862;
475053261101788;2.2517;11.2599;0.6823;
475053281184557;2.5654;9.6893;2.2984;
475053301093942;1.5119;8.2361;3.7098;
475053321093249;1.0008;9.6941;1.7107;
475053341098903;1.7549;10.5848;0.9565;
475053361091865;2.3810;9.4391;2.2757;
475053381100826;1.2905;8.7496;3.8463;
475053401180865;1.2761;10.1466;1.7561;
475053421092672;1.6005;9.8019;2.6145;
475053441011865;1.3515;9.1351;2.9856;
475053461074672;0.7003;9.3793;3.2358;
475053481144172;1.0020;10.4208;1.8783;
475053501095480;1.4042;9.8617;2.5007;
475053521035211;1.2725;9.1315;3.1065;
475053541088211;0.8559;9.5792;2.8419;
475053561108480;1.3707;10.3298;1.4006;
475053581099249;1.7478;9.4308;2.9784;
475053601098288;1.6436;9.1590;3.2717;
475053621150903;1.7909;10.1981;2.3032;
475053641171941;1.9740;10.4591;1.8806;
475053661084326;1.9405;8.9591;3.2645;
475053681178095;1.9620;9.0489;2.8323;
475053701083364;2.0949;9.8629;2.1835;
475053721108441;1.8926;9.6762;2.7509;
475053741687211;1.2510;9.1734;3.2358;
475053761025903;1.6185;9.6355;2.3559;
475053781027941;1.0511;9.7073;2.2637;
475053801017364;1.7059;9.2751;2.3248;
475053821077711;1.4246;9.3111;3.2741;
475053840994672;1.2067;9.8198;2.5031;
475053861039672;0.7242;9.7049;2.2877;
475053881035634;1.4724;9.2512;2.6073;
475053901034787;0.9529;9.4727;2.4157;
475053921169595;1.0870;9.9276;2.0027;
475053941177672;0.8092;9.7264;2.4565;
475053961097749;0.7350;9.5014;2.9497;
475053981178210;0.4621;9.6175;2.2769;
475054001086172;0.4645;10.2005;1.5586;
475054021125826;0.8404;10.0137;2.1679;
475054041091864;0.8128;9.7755;1.8531;
475054061092364;0.5363;9.7324;1.5586;
475054081081057;0.7219;9.9934;0.9337;
475054101088326;0.9301;9.8964;1.4042;
475054121180095;0.6261;9.6211;1.8088;
475054141130056;0.6476;9.5936;0.7554;
475054161091980;0.3807;9.7911;0.4705;
475054181169249;0.6381;9.7528;1.1049;
475054201100095;0.5950;9.5840;1.2175;
475054221140210;0.5136;9.4152;1.1372;
475054241010479;0.1879;9.5744;1.0403;
475054261100133;0.8511;9.7767;0.8679;
475054281113518;0.6045;9.7432;0.8320;
475054301096287;0.5519;9.5708;0.9577;
475054321108249;-0.0503;9.7444;0.7207;
475054341103633;0.7302;9.8007;0.5495;
475054361100787;1.1037;9.7312;1.0487;
475054381101787;0.6452;9.4643;1.4844;
475054401015210;0.2861;9.6474;0.3220;
475054421132825;0.7925;9.7636;0.4166;
475054441091095;1.3156;9.4008;0.8990;
475054461100595;1.1600;9.4020;0.8176;
475054481104710;0.9577;9.6582;0.7003;
475054501013710;0.9050;9.7025;0.7697;
475054521115325;1.1959;9.5457;0.9708;
475054541113979;0.2849;9.4954;0.3855;
475054561105595;0.8930;9.5409;0.2418;
475054581103979;0.8021;9.7995;0.5555;
475054601102056;1.3683;11.1821;1.4772;
475054621123364;2.6228;11.2575;3.0921;
475054641088287;4.1168;10.1442;-2.3990;
475054661195518;0.6309;10.0652;-1.3539;
475054681109210;-3.6045;6.8905;2.6492;
475054701101018;-3.7481;5.9388;4.4017;
475054721045095;-3.1819;10.3848;0.5567;
475054741038633;0.1065;12.2092;-1.6328;
475054761022941;2.2613;9.1195;0.1724;
475054781051979;1.5490;6.0741;0.0108;
475054801005518;-2.3044;8.5222;1.2498;
475054821003325;-0.1712;11.8022;0.8703;
475054841033671;1.4629;10.9714;1.1552;
475054861054364;-0.4357;8.5844;2.7222;
475054881101825;-1.5730;9.1782;1.0187;
475054901098902;1.7238;10.3549;-0.3304;
475054921114325;2.6959;9.8785;1.6281;
475054941114364;0.8152;9.9072;1.8567;
475054961198094;0.2586;10.0533;1.4904;
475054981109248;1.6089;10.2915;0.9062;
475055001114864;2.6695;10.0377;1.1516;
475055021112594;0.8416;9.8761;0.8918;
475055041101633;0.1616;10.0197;0.3172;
475055061114056;1.3396;9.8258;0.8284;
475055081106094;1.6915;9.6666;3.0191;
475055101105517;0.7913;9.9431;0.7961;
475055121114940;-0.2059;9.7288;0.9134;
475055141113671;1.2893;10.2364;0.3089;
475055161114710;0.8619;10.2963;1.2019;
475055181104556;-0.1089;9.8330;0.9936;
475055201165786;3.2477;9.3075;2.2254;
475055221169133;4.0797;13.5248;-4.4388;
475055241089786;0.8452;10.3022;-3.9672;
475055261179248;-3.9025;4.1647;7.0653;
475055281103056;-1.7777;8.2576;2.9209;
475055301186786;2.2350;12.5157;-4.8315;
475055321189517;-0.5938;7.9703;0.3472;
475055341094440;-1.8256;6.6571;3.5889;
475055361189556;-0.7230;11.4299;-2.9521;
475055381091979;-0.6644;11.3617;-1.7119;
475055401088863;0.5507;7.5334;2.9544;
475055421104325;-1.2079;9.6139;-0.2478;
475055441083479;-0.4262;10.7392;-4.1288;
475055461094825;0.2286;9.1327;0.5148;
475055481083017;1.2558;8.4276;1.4174;
475055501082979;0.9457;10.0700;-2.1153;
475055521177132;0.0622;10.9355;-1.6005;
475055541092902;1.4006;9.8210;-0.6045;
475055561101440;1.6963;8.8358;2.1859;
475055581131171;0.8428;9.7336;-0.0622;
475055601164940;0.8894;10.7751;-1.6388;
475055621124671;0.8703;9.7887;0.1508;
475055641027902;1.2917;9.1734;0.8990;
475055661093863;0.7889;10.4507;-0.3508;
475055681085055;0.5351;10.4962;0.4657;
475055701173555;0.9349;9.6367;0.3986;
475055721016209;0.7745;9.3889;1.1289;
475055743152325;0.6333;10.1598;0.0575;
475055761095363;0.5207;10.3370;-0.2454;
475055781018517;-0.0706;9.5205;1.4988;
475055801010325;0.1927;9.5732;0.7362;
475055821012171;0.1903;10.1454;-0.4729;
475055841050132;0.1209;9.8521;0.2047;
475055861039594;0.3926;9.2512;1.0690;
475055881083824;0.0682;9.3506;1.4653;
475055901168940;-0.2538;10.0748;0.2215;
475055921170632;-0.0982;9.7803;0.5770;
475055941093247;-0.5578;9.5457;1.3874;
475055961092401;-0.6812;10.0317;0.9984;
475055981092401;-0.3112;10.1047;-1.0032;
475056001097132;0.2346;9.6654;0.5100;
475056021106863;0.5267;9.5146;0.8140;
475056041136286;0.3029;9.9994;-0.2705;
475056061094247;0.0144;10.0042;0.7494;
475056081098440;0.4717;9.7408;0.5207;
475056101170055;1.0367;9.6893;0.0563;
475056121171978;0.6788;9.7887;0.3316;
475056141093363;0.3723;9.6247;0.6943;
475056161088747;1.3120;9.7001;-0.2634;
475056181084401;1.3012;9.6091;0.2646;
475056201091209;0.9146;9.7109;0.7877;
475056221109517;0.7003;9.8246;0.3089;
475056241127709;0.8092;9.8785;0.8559;
475056261089555;1.1660;9.8270;0.6345;
475056281089670;0.6572;9.5158;0.2358;
475056301103286;0.0694;9.4739;0.6728;
475056321179824;0.3424;9.9587;-0.4621;
475056341093440;0.7769;9.7887;-0.1664;
475056361092209;0.4034;9.4260;1.3372;
475056381092286;0.4633;9.6965;0.6357;
475056401091516;0.2873;9.8940;-0.5662;
475056421188824;0.1317;9.9611;0.0036;
475056441102901;0.2969;9.5373;1.2558;
475056461090324;0.4070;10.0880;-0.0359;
475056481091362;-0.3747;10.2113;0.1700;
475056501100862;-0.4717;10.2999;0.2239;
475056521098747;0.6153;10.0580;0.0048;
475056541103978;0.8811;9.8821;0.8942;
475056561109170;0.4633;9.8509;1.2833;
475056581106747;0.1149;9.8485;-0.0706;
475056601177285;0.4286;9.8306;0.3304;
475056621113093;0.7901;10.0568;0.5878;
475056641038555;0.4896;9.6905;0.6764;
475056661102555;0.1137;9.6798;-0.2586;
475056681102862;0.5531;9.7911;-0.0096;
475056701101093;0.8847;9.7516;0.5938;
475056721098208;0.7626;9.7396;-0.2729;
475056745293862;0.1460;9.7516;-0.1939;
475056771258093;0.7925;9.6941;0.1425;
475056801104055;0.5387;9.6845;0.1317;
475056821022170;-0.1532;9.6534;0.5950;
475056841095208;-0.1125;9.7396;-0.3352;
475056861042478;0.6955;9.5098;-0.0958;
475056881041555;0.5339;9.6881;0.3711;
475056901038824;-0.0802;9.6881;1.2019;
475056921049208;0.0838;9.6486;1.0163;
475056941104747;0.7793;9.7252;0.8056;
475056961108708;0.4920;9.9946;0.9912;
475056981098170;-0.0036;9.8462;1.7717;
475057001099285;-0.2813;9.3015;1.9441;
475057021077593;0.6692;10.1813;0.2885;
475057041078401;0.7614;10.6757;-0.7614;
475057061051439;0.0838;9.1303;0.8847;
475057081050593;0.4142;8.3833;2.6085;
475057101039054;0.5686;10.2149;1.0726;
475057121044054;0.2586;11.0349;-0.2346;
475057141130900;0.3843;8.9196;2.2218;
475057161102400;0.6093;9.0381;1.4880;
475057181083747;0.5351;10.3537;-0.1867;
475057201082208;0.7015;10.0832;0.1927;
475057221174208;0.1987;9.2320;2.2589;
475057241180823;0.3998;9.6379;1.2546;
475057261111016;0.7338;10.2795;0.0982;
475057281216362;0.8296;9.6115;0.7266;
475057301099862;0.4345;9.0872;1.7454;
475057321167631;0.3747;9.5181;1.8902;
475057341100285;0.6859;10.4507;0.2298;
475057361208862;0.8128;9.8007;1.6556;
475057381301054;0.1293;9.0525;1.9465;
475057401176862;0.0754;9.7719;1.2677;
475057421100054;0.2873;10.1203;1.5969;
475057441194823;0.3316;9.5924;1.5730;
475057461107785;-0.1185;9.3446;2.2733;
475057481140939;0.1018;9.6917;1.4138;
475057501096093;0.3855;9.7636;1.6472;
475057521084400;0.5279;9.5732;1.7933;
475057541105554;0.3029;9.6558;2.2446;
475057561170054;-0.1700;9.7743;1.4832;
475057581169208;0.1209;9.6331;2.0207;
475057601151516;0.4836;9.4188;2.1679;
475057621096708;0.4214;9.6893;2.2649;
475057641109708;0.3328;9.6869;1.3300;
475057661095131;0.3484;9.2835;1.4174;
475057681177669;0.7614;9.3230;2.0087;
475057701033477;0.9230;9.5948;1.4006;
475057721012977;0.0132;9.7061;1.5838;
475057741048592;0.3005;9.3314;2.1237;
475057761051246;0.9637;9.4164;2.3391;
475057781032862;0.7051;9.7288;1.3707;
475057801022592;0.1520;9.7001;1.8675;
475057821023285;0.3831;9.4715;2.1428;
475057841013015;0.5578;9.5325;2.1656;
475057860995015;0.9026;9.8342;1.7753;
475057881005631;0.3998;9.8306;1.9704;
475057901020977;-0.0239;9.5229;2.1308;
475057921009400;0.4441;9.4607;2.2529;
475057941107861;0.8823;9.8102;1.4497;
475057961093477;0.6428;9.7169;2.0339;
475057981114631;0.3795;9.5924;2.1787;
475058001109400;0.1245;9.6187;1.9680;
475058021101169;0.9230;9.7815;1.1983;
475058041114515;0.5207;9.9575;0.5830;
475058061100784;0.5267;9.8881;0.5124;
475058081117207;0.0599;9.2201;1.4365;
475058101112284;0.6823;9.2979;1.7801;
475058121096015;0.2310;9.9443;0.2490;
475058141125592;-0.1556;9.7995;0.1269;
475058161171054;0.7721;8.9172;1.5443;
475058181170592;0.8428;9.3039;1.7681;
475058201081977;-0.1927;10.2903;0.6788;
475058221170169;-0.2825;10.0461;0.7470;
475058241168400;0.3400;9.1243;1.5143;
475058261028977;0.5219;9.1506;0.8799;
475058281037977;0.0491;9.9671;0.0611;
475058301034784;0.2215;9.9359;0.7649;
475058321094361;0.2346;9.4643;1.6005;
475058341011823;0.4417;10.6997;2.4445;
475058361022746;2.3631;11.7340;2.1524;
475058381028438;4.1635;10.3741;0.2203;
475058401047784;2.0638;10.2807;-2.6588;
475058421083515;-3.5506;8.2025;-0.6608;
475058441086015;-3.9181;5.6802;5.0362;
475058461030900;-3.4153;8.8346;2.5187;
475058481032053;-0.3926;12.5253;-0.6632;
475058501040976;2.2494;10.5249;-1.7609;
475058521040976;2.0698;6.0430;-0.3376;
475058541103246;-2.1069;6.7947;3.3088;
475058561022976;-0.0970;11.6801;-0.3376;
475058581031015;1.0654;11.7495;-0.8200;
475058601037784;0.0467;9.0225;1.9740;
475058621028861;-1.6712;7.9404;2.4110;
475058641035899;1.1983;10.4627;-1.8471;
475058661027169;2.3272;10.2364;0.8164;
475058681043553;1.0319;8.9651;2.6528;
475058701034322;-0.3280;9.7252;2.4960;
475058721019976;1.4820;10.9140;-0.2011;
475058741011399;2.1177;10.4686;0.7159;
475058761013207;0.5734;9.2763;1.1432;
475058781054322;-0.3424;9.3960;1.8591;
475058801005399;1.1624;10.0652;0.4477;
475058821010245;1.5311;10.0880;1.3755;
475058841102592;0.2346;9.8222;1.6712;
475058861040053;-0.1820;9.8785;-0.1437;
475058881102322;0.8380;9.8569;-0.4848;
475058901111592;1.4772;10.9918;-0.8332;
475058921090668;0.7159;8.9747;3.1484;
475058941166899;2.7701;10.0413;-0.9732;
475058961165091;2.5055;13.4482;-4.7621;
475058981092476;-1.0319;9.4391;0.9505;
475059001096438;-3.1532;4.8303;8.0780;
475059021179053;-1.1468;8.7364;-0.0790;
475059041180938;0.4381;11.7507;-3.2010;
475059061102745;-0.8966;9.8605;3.2226;
475059081105476;-0.6919;10.0892;2.1727;
475059101095938;-2.0411;9.1782;-0.1628;
475059121021514;-0.2071;9.5253;-0.9852;
475059141168245;0.0850;10.4399;-4.0247;
475059161168745;-1.0199;9.5804;0.4944;
475059181089937;-1.1193;9.0752;1.8806;
475059201103322;0.7494;9.9240;-2.4900;
475059221100976;0.7805;10.6231;-0.9014;
475059241111284;0.8056;9.9300;-0.1377;
475059261041245;0.9673;9.1518;0.5447;
475059281047668;1.0642;9.8474;0.8595;
475059301014899;1.5000;10.4124;-0.9804;
475059321028591;0.9936;9.8162;0.4046;
475059341001784;1.2103;9.5565;0.6752;
475059361014399;1.7538;9.8701;-0.1209;
475059381011783;0.9385;10.2364;-0.0551;
475059401013053;0.0024;9.7384;0.6249;
475059421123976;0.4788;9.8019;0.4154;
475059441034091;1.1301;10.2424;-0.9984;
475059461103476;0.4214;9.9000;0.5483;
475059481099706;-0.2693;9.6283;1.2139;
475059501022591;0.1137;9.9587;-1.0678;
475059521112283;0.4262;10.2568;-0.1149;
475059541032283;-0.2574;9.9335;0.9601;
475059561105283;-0.4345;9.4008;-0.1999;
475059581033206;-0.2131;9.6534;-0.1915;
475059601028091;0.0563;10.0509;-0.0790;
475059621021437;-0.7015;9.5038;1.5036;
475059641012822;-0.3376;9.6977;-0.0611;
475059661103437;0.2430;9.9419;-1.3240;
475059681043706;0.1161;10.0054;0.3891;
475059701018899;-0.3591;9.5050;-0.1149;
475059721026283;-0.1568;9.2213;-1.6077;
475059741981129;0.4573;9.7133;-0.3268;
475059761021706;0.6584;10.2292;0.1197;
475059781029976;0.3891;9.5205;-1.6197;
475059801028899;-0.2143;9.2249;-0.9637;
475059821090552;0.4154;9.9874;0.5674;
475059841104860;0.8954;10.1442;-1.0499;
475059861041360;1.1480;9.7540;-3.0119;
475059881049745;0.5267;9.4667;-1.9716;
475059901036822;0.8475;9.9659;-1.9285;
475059921067552;0.7590;10.6255;0.5136;
475059941051322;0.0479;10.1311;0.5842;
475059961100245;0.2741;9.6187;-2.1296;
475059981102706;0.5160;9.5972;-2.7330;
475060001090937;0.9050;10.2388;-0.0874;
475060021105091;0.4142;10.1466;0.9577;
475060041113591;0.2346;9.7719;-2.0566;
475060061111475;0.3962;9.6067;-3.5745;
475060081107129;0.6596;9.5421;-1.2139;
475060101109591;0.3831;9.9096;1.3060;
475060121124783;0.0826;9.6678;-0.5507;
475060141139475;0.0958;10.0078;0.7733;
475060161106091;-0.0455;9.7863;-0.6548;
475060181170937;0.5183;9.4523;-2.5139;
475060201171360;0.3555;9.6259;-3.1089;
475060221087975;0.5100;10.1562;-1.1839;
475060241179514;0.0718;10.1418;0.9445;
475060261178167;-0.2083;9.7935;0.9685;
475060281044860;0.6261;9.8725;-0.8966;
475060301021360;0.8021;10.2735;-3.4249;
475060321030321;0.3615;10.3046;-3.3746;
475060341100975;0.5064;9.7432;-0.9158;
475060361012014;0.5040;9.8067;-0.0215;
475060381093129;0.7685;10.2220;-2.8742;
475060400999898;0.9840;9.7887;-1.3216;
475060421014398;1.1049;9.5373;0.1293;
475060441020821;0.2646;9.8067;-0.3400;
475060461020706;0.5219;9.8043;-0.2945;
475060481048898;1.1420;9.2979;-0.5902;
475060501038321;1.2761;9.3577;-1.9034;
475060521019552;0.6069;9.9527;-2.5163;
475060541049821;0.5423;10.3286;-2.4409;
475060561112667;1.1229;9.9240;-1.2139;
475060581008629;0.9445;9.8869;0.2813;
475060601012706;0.0922;10.2639;-0.0778;
475060621102090;1.4090;9.9000;-2.1679;
475060641102860;1.5191;9.6319;-1.1899;
475060661102821;1.2306;9.8485;-1.1779;
475060681015167;0.3795;10.0185;-1.4317;
475060701034052;0.7219;10.1191;-1.1109;
475060721017859;0.9254;10.0772;-0.2813;
475060743064859;1.1899;10.1323;-0.5997;
475060761022321;1.3958;10.3154;-0.2514;
475060782789398;1.2354;10.3753;-0.1975;
475060801014936;0.7039;10.2149;-0.2526;
475060821027629;0.2981;10.0928;-0.5148;
475060841070667;1.8399;10.1706;-0.2023;
475060861117090;1.2450;10.2735;-1.5407;
475060881070013;0.5243;9.5325;-1.8088;
475060901070013;1.5323;9.7336;-1.6400;
475060921067859;1.2653;9.7911;-1.6293;
475060941172167;0.3472;9.4439;-1.6951;
475060961124052;0.7542;9.8725;-1.4772;
475060981062821;1.4162;10.0185;-0.9720;
475061001105475;1.1528;9.9168;-1.3060;
475061021107013;0.8811;9.8964;-0.5195;
475061041112936;0.2945;10.2675;-0.7506;
475061061197244;0.5986;10.1011;-0.9182;
475061081109667;1.5143;10.2232;-1.1097;
475061101114051;1.6053;9.8557;-0.5734;
475061121108975;0.5495;9.8976;-1.8423;
475061141114321;1.0953;10.0712;-1.8926;
475061161201128;1.5706;9.7528;-1.3803;
475061181086628;0.9301;9.6139;-1.3659;
475061201012744;0.3412;9.7432;-1.2151;
475061221088282;0.7590;9.8090;-0.4741;
475061241109359;1.5850;9.9431;-0.4310;
475061261141821;0.7219;10.0245;-0.7159;
475061281059205;0.3915;10.1227;-0.1532;
475061301025244;0.6907;10.1849;-0.3891;
475061321011936;1.0044;9.8593;-0.2035;
475061341034205;1.1612;9.9766;-1.2845;
475061361106205;0.5686;9.9419;-0.5614;
475061381011090;1.0104;9.9300;-0.9158;
475061401010897;1.0092;9.9491;-1.6376;
475061421023782;0.7434;9.7372;-0.8715;
475061441100513;0.8871;9.7205;-0.8368;
475061461034705;1.0511;9.7252;-0.8368;
475061481009820;1.0546;9.9922;-0.3567;
475061501008628;0.5136;10.1179;-0.7458;
475061521025743;0.4250;9.9766;-1.7849;
475061541024590;0.8703;9.4715;-1.6149;
475061561041667;1.0283;9.7899;-1.7238;
475061581027705;0.4800;10.2197;-0.9697;
475061601011859;0.7494;10.0161;-0.8763;
475061621021936;1.3731;10.0916;-1.0307;
475061641011436;0.5339;9.6738;-0.6129;
475061661105782;0.4669;9.4607;-2.1548;
475061681102282;0.6596;9.7312;-1.3060;
475061701011205;0.8224;10.2771;-0.9673;
475061721030513;0.8104;9.8617;-1.6448;
475061741050705;0.8679;9.5241;-1.5682;
475061761028628;1.2713;9.8210;-1.2390;
475061781027589;0.5483;10.8326;-1.1851;
475061801015782;0.0431;9.9695;-1.0499;
475061821008743;0.5243;9.2835;-1.2558;
475061841095051;0.9170;9.8474;-1.1995;
475061861099205;0.4693;10.0413;-2.6659;
475061881086859;0.6871;9.7432;-1.8711;
475061901039897;1.1815;9.6690;-1.6879;
475061921039166;0.3472;9.6247;-1.4377;
475061941050589;0.2502;10.3801;-0.9589;
475061961044551;0.4238;9.8186;-0.3675;
475061981093397;0.7111;9.9144;-0.9158;
475062001079474;1.1229;10.0413;-0.5100;
475062021092205;0.5878;9.8019;-0.9182;
475062041095435;0.5207;10.1418;-2.5977;
475062061123243;0.0383;9.9132;-1.6712;
475062081107974;0.5962;9.6486;-1.4748;
475062101120397;1.2282;10.0233;-1.3048;
475062121087935;0.2610;10.5010;-1.4138;
475062141098512;0.4070;10.0197;-0.7697;
475062161165589;1.3288;9.4571;-0.3795;
475062181100897;1.6173;9.7540;-0.4896;
475062201082051;0.2717;9.7073;-0.4693;
475062221085589;-0.1257;9.2919;0.0814;
475062241082935;0.9290;9.2308;1.2498;
475062261180012;1.4880;9.4451;0.8128;
475062281090320;1.4389;9.9443;0.3867;
475062301045243;0.2729;9.8940;0.2777;
475062321023820;0.6033;9.4128;1.9812;
475062341013666;0.5818;10.2280;1.7561;
475062361136204;0.7614;11.0648;-0.1736;
475062381023551;0.2921;10.0066;0.6141;
475062401036781;0.6776;8.9579;1.9154;
475062421068320;1.6328;10.3011;1.4269;
475062441033281;0.8571;10.6482;1.4198;
475062461104166;-0.0479;9.9515;2.2051;
475062481029589;-0.3268;9.4918;1.3599;
475062501113050;1.1253;10.8026;0.1652;
475062521013089;1.2797;10.5728;0.7159;
475062541031550;0.0287;9.3182;1.2857;
475062561068127;0.2442;8.9244;1.6269;
475062581040012;0.5794;10.0365;0.6393;
475062601035781;0.8535;10.2867;0.8224;
475062621026166;0.3543;8.7987;1.5071;
475062641017666;0.3340;9.3434;0.4657;
475062661032473;-0.0383;10.1873;-0.3328;
475062681032166;0.1891;9.6606;0.7027;
475062701039320;0.8368;9.3553;1.1851;
475062721034243;0.5519;9.3003;1.5790;
475062741262243;0.0227;9.4320;0.5279;
475062761029012;-0.4860;9.5972;-0.3555;
475062781876281;0.4429;9.9886;1.3874;
475062801010358;-0.1269;10.1059;1.1624;
475062821014935;-0.2083;10.2089;0.0958;
475062841047973;-0.0934;9.3553;1.2522;
475062861046127;0.5878;9.6833;-0.4621;
475062881030666;-0.0539;10.6530;-1.1516;
475062901031396;-0.9888;10.4016;-1.4545;
475062921099819;0.6943;9.2129;-0.1365;
475062941109396;1.0056;9.3039;-0.4154;
475062961133242;-0.1808;10.2137;-2.6181;
475062981126089;-0.9122;10.0329;-2.8036;
475063001113050;0.5626;9.5984;-0.5567;
475063021081204;1.1528;9.7145;0.3986;
475063041083627;-0.2215;10.3118;-0.5279;
475063061082319;-0.1604;10.2723;-0.8296;
475063081090396;1.1420;9.6510;0.3244;
475063101104012;0.9912;9.4224;1.0558;
475063121090127;-0.9493;10.6099;-1.0379;
475063141091935;-0.2526;10.4447;-0.3867;
475063161179281;0.8009;9.9527;0.0670;
475063181055935;0.8511;10.0473;-0.1281;
475063201183473;-0.9936;9.8677;0.3472;
475063221077088;-0.4046;10.0712;0.4860;
475063241082435;1.6293;10.1059;0.2382;
475063261081319;1.5131;10.1143;-1.3168;
475063281091319;-0.5243;9.9012;-1.1121;
475063301106281;-0.8224;9.8366;-0.4549;
475063321023165;1.0511;10.2173;-0.0946;
475063341013781;0.8954;10.2532;0.4561;
475063361022704;-0.2191;9.5780;-0.9278;
475063381034434;0.0682;10.1634;-0.8380;
475063401119858;0.6045;10.3011;-0.2370;
475063421009319;-0.2837;9.9491;1.0139;
475063441020819;0.2071;9.5313;1.3467;
475063461053281;0.9038;9.7636;0.5483;
475063481107819;0.1748;10.0999;-0.6261;
475063501022627;-0.1317;9.4367;-0.2011;
475063521016665;0.3663;9.0872;-0.1101;
475063541025396;0.7805;9.8964;-1.2043;
475063561024396;-0.2298;10.4579;-1.3635;
475063581103934;0.5734;10.0329;-0.2298;
475063601033588;0.8763;9.5517;-0.8236;
475063621018857;0.0323;9.8545;-0.8787;
475063641011627;-0.4788;10.0999;-1.3168;
475063661018780;0.6931;9.6211;-0.6548;
475063681102665;0.8499;9.4607;-0.0754;
475063701028127;-0.2670;9.8222;-0.4202;
475063721014627;-0.4968;10.2783;-0.2837;
475063741325088;0.7877;10.2448;0.6440;
475063761029819;1.2019;9.9252;1.1289;
475063781036473;-0.0766;9.9407;-0.1700;
475063801008896;-0.2837;9.5313;0.2753;
475063821015165;0.1113;9.8366;0.4561;
475063841009050;0.5818;9.7241;0.1532;
475063861015126;0.0670;10.2412;0.8272;
475063881103819;-0.2693;9.7097;1.4138;
475063901086126;-0.4226;10.0868;0.6452;
475063921081857;0.7482;10.0449;0.1700;
475063941084588;1.0750;9.9611;-1.5036;
475063961088549;1.0894;9.0644;-0.2119;
475063981104703;-0.2107;9.4643;0.4920;
475064001095549;-0.2670;10.2735;-0.8775;
475064021095819;0.4357;9.9240;-0.0850;
475064041099819;0.5986;9.3194;1.2019;
475064061181972;0.3543;9.9072;0.7566;
475064081172319;0.2071;10.8625;-0.7135;
475064101181395;0.3400;9.9719;1.6867;
475064121094665;0.3136;9.7947;2.3583;
475064141098319;0.4034;10.3298;0.6404;
475064161181049;0.4130;10.6243;-0.5746;
475064181101742;0.3639;9.4691;1.4246;
475064201084780;0.3675;9.5684;1.9980;
475064221171318;0.3376;11.0684;-0.5686;
475064241083011;0.2993;10.6757;-0.1245;
475064261089934;0.5267;9.3170;1.8962;
475064281092857;0.6584;9.2787;2.0554;
475064301096857;0.2274;10.6075;0.5914;
475064321092203;-0.0826;10.6123;0.2969;
475064341132395;0.4202;9.3733;1.2402;
475064361183511;0.5519;9.4475;0.7410;
475064381187203;-0.2825;10.2915;-0.7410;
475064401099549;0.1233;9.6211;0.1987;
475064421092818;1.0702;9.2560;1.3934;
475064441096934;0.4645;9.9814;1.1133;
475064461093741;-0.0527;10.2747;0.6153;
475064481181203;-0.1580;9.4727;1.2127;
475064501096434;0.4681;9.3398;1.3168;
475064521091126;0.7338;10.0712;0.7458;
475064541095741;-0.1616;10.2460;0.7554;
475064561097511;0.0934;9.6833;1.7621;
475064581102357;0.7207;9.6474;1.7214;
475064601096011;0.4992;10.3956;-0.2801;
475064621019703;-0.0156;9.6953;0.7123;
475064641083203;-0.4669;9.3051;0.9876;
475064661088280;0.6955;9.9503;0.2298;
475064681168472;1.1181;10.0221;0.9206;
475064701180126;-0.0251;9.9695;1.4904;
475064721088857;-0.5207;9.8270;1.1097;
475064742050818;0.6249;9.8809;0.8140;
475064761027318;0.9541;10.0269;0.2478;
475064781079933;0.1496;9.9455;1.1444;
475064801030664;0.4250;9.7049;0.1161;
475064821039087;0.6369;9.9994;-0.6393;
475064841036203;0.6129;9.3158;0.6979;
475064861039510;0.1951;9.8869;0.4310;
475064881102433;0.8212;10.3920;0.0132;
475064901047549;0.3747;9.6391;0.3160;
475064921048087;-0.1137;9.3182;0.4046;
475064941053049;0.2658;9.3673;0.2251;
475064961109741;0.4322;9.9276;-0.3771;
475064981196126;0.1676;9.5960;0.1844;
475065001143010;0.0682;9.2632;1.2486;
475065021019779;0.4896;10.1825;0.5243;
475065041034126;0.5674;10.2639;0.5914;
475065061027587;-0.0527;9.4296;0.5495;
475065081124087;-0.1484;9.3781;0.3124;
475065101042587;0.9290;10.5584;1.0319;
