Sensor: LSM6DSL Gyroscope
Vendor: STM
TimestampGyro [ns]; GyroX [rad/s]; GyroY [rad/s]; GyroZ [rad/s]
473995386304910;-0.0251;0.0010;-0.0052;
473995445723996;-0.0116;0.0034;-0.0120;
473995485742289;0.0263;0.0052;0.0125;
473995515532013;-0.0061;-0.0064;-0.0113;
473995540339894;-0.0080;0.0016;0.0167;
473995562798892;0.0116;0.0095;-0.0260;
473995583971429;0.0073;-0.0070;0.0210;
473995604549813;-0.0165;-0.0027;-0.0175;
473995624852063;0.0128;0.0040;0.0149;
473995645002688;0.0092;-0.0021;-0.0242;
473995665072097;-0.0037;-0.0009;0.0241;
473995685099936;-0.0098;-0.0009;-0.0168;
473995705112432;-0.0098;0.0040;0.0015;
473995725143257;0.0092;0.0010;0.0051;
473995745159843;-0.0098;-0.0039;-0.0113;
473995765149040;0.0018;0.0034;0.0204;
473995785144003;0.0012;-0.0015;-0.0260;
473995805152312;0.0092;0.0022;0.0216;
473995825144274;-0.0116;0.0058;-0.0052;
473995845137851;0.0073;-0.0039;0.0131;
473995865143255;0.0018;0.0028;-0.0162;
473995885146130;-0.0012;-0.0015;0.0192;
473995905141183;-0.0086;-0.0009;-0.0217;
473995925140344;-0.0000;0.0010;0.0186;
473995945139867;0.0030;-0.0015;-0.0150;
473995965151628;-0.0153;0.0065;0.0009;
473995985180817;0.0037;-0.0045;0.0125;
473996005161661;0.0024;0.0016;-0.0181;
473996025150448;0.0085;0.0034;0.0180;
473996045170092;-0.0043;-0.0058;-0.0181;
473996065167952;0.0055;0.0028;-0.0016;
473996085166402;-0.0018;0.0065;-0.0095;
473996105160684;0.0024;-0.0082;0.0186;
473996125153018;-0.0012;0.0071;-0.0187;
473996145157838;0.0018;-0.0021;0.0137;
473996165157864;-0.0043;-0.0003;-0.0156;
473996185206973;-0.0055;0.0028;0.0113;
473996205199431;0.0006;-0.0039;-0.0059;
473996225170006;-0.0116;0.0052;-0.0028;
473996245204852;0.0092;-0.0015;0.0088;
473996265168409;0.0024;0.0010;-0.0144;
473996285173765;0.0043;-0.0009;0.0204;
473996305192962;-0.0080;-0.0009;-0.0266;
473996325199253;0.0073;0.0010;0.0106;
473996345181494;-0.0000;0.0046;-0.0144;
473996365364961;-0.0012;-0.0070;0.0161;
473996385255021;0.0012;0.0071;-0.0156;
473996405246494;0.0012;-0.0033;0.0106;
473996425235211;-0.0061;0.0010;-0.0089;
473996445192262;-0.0067;0.0022;0.0051;
473996465167710;0.0043;0.0003;-0.0034;
473996485156915;-0.0086;0.0058;-0.0059;
473996505153729;0.0037;-0.0027;0.0119;
473996525188655;0.0018;0.0052;-0.0175;
473996545165888;0.0037;-0.0045;0.0198;
473996565186485;-0.0073;-0.0003;-0.0162;
473996585200533;0.0116;0.0016;0.0167;
473996605179288;0.0049;0.0058;-0.0193;
473996625166954;-0.0031;-0.0058;0.0137;
473996645210479;0.0006;0.0040;-0.0083;
473996665180069;-0.0055;-0.0039;0.0039;
473996685199402;-0.0043;0.0058;-0.0028;
473996705199665;-0.0098;-0.0015;-0.0022;
473996725174027;0.0128;0.0022;0.0045;
473996745162554;0.0006;0.0065;-0.0156;
473996765188587;0.0006;-0.0088;0.0186;
473996785170411;-0.0006;0.0052;-0.0138;
473996805158131;-0.0000;-0.0015;0.0082;
473996825175856;-0.0031;-0.0033;-0.0181;
473996845190180;0.0098;0.0022;0.0204;
473996865166746;0.0061;0.0034;-0.0193;
473996885190991;-0.0104;-0.0052;0.0131;
473996905201978;-0.0049;0.0040;-0.0046;
473996925176684;-0.0080;-0.0015;-0.0065;
473996945192440;0.0030;0.0071;0.0094;
473996965175741;-0.0080;-0.0033;-0.0107;
473996985231642;0.0085;0.0010;0.0174;
473997005257765;0.0061;0.0046;-0.0168;
473997025237962;-0.0012;-0.0082;0.0161;
473997045234849;-0.0018;0.0058;-0.0126;
473997065190273;0.0116;0.0040;0.0174;
473997085168927;-0.0000;0.0010;-0.0272;
473997105192793;0.0012;0.0003;0.0253;
473997125205533;-0.0031;-0.0009;-0.0168;
473997145223884;-0.0165;0.0010;0.0045;
473997165380906;0.0043;-0.0003;0.0064;
473997185268359;-0.0061;-0.0027;-0.0138;
473997205212778;0.0079;0.0071;0.0149;
473997225186910;-0.0018;-0.0015;-0.0217;
473997245161726;0.0073;0.0010;0.0210;
473997265168019;0.0006;0.0028;-0.0193;
473997285171704;-0.0092;-0.0033;0.0137;
473997305177008;-0.0025;0.0046;-0.0040;
473997325180275;0.0073;-0.0021;0.0210;
473997345181043;-0.0080;-0.0021;-0.0236;
473997365160812;-0.0025;0.0028;0.0192;
473997385186850;0.0006;-0.0027;-0.0138;
473997405212235;-0.0147;0.0065;0.0003;
473997425179696;0.0024;-0.0009;0.0070;
473997445193177;-0.0018;-0.0015;-0.0120;
473997465166398;0.0085;0.0058;0.0149;
473997485200663;-0.0043;-0.0033;-0.0211;
473997505182564;0.0037;0.0003;0.0235;
473997525169515;0.0018;0.0034;-0.0248;
473997545157106;-0.0122;-0.0009;0.0100;
473997565187228;0.0030;0.0046;-0.0181;
473997585172635;0.0037;-0.0021;0.0155;
473997605183146;-0.0080;-0.0033;-0.0144;
473997625163383;-0.0049;0.0022;0.0143;
473997645153924;0.0030;-0.0027;-0.0113;
473997665167483;-0.0141;0.0046;0.0015;
473997685156782;0.0030;-0.0027;0.0076;
473997705149951;0.0018;0.0016;-0.0150;
473997725832920;0.0079;0.0003;0.0216;
473997745500308;-0.0061;-0.0003;-0.0248;
473997765329194;-0.0018;0.0010;0.0229;
473997785266945;0.0006;-0.0027;-0.0168;
473997805199397;-0.0171;0.0065;0.0009;
473997825164547;0.0037;0.0058;-0.0101;
473997845147198;-0.0055;-0.0045;0.0058;
473997865160005;-0.0092;0.0046;-0.0046;
473997885157524;-0.0104;-0.0009;-0.0016;
473997905157398;0.0098;-0.0003;0.0033;
473997925152528;-0.0000;0.0058;-0.0132;
473997945183074;0.0037;-0.0094;0.0180;
473997965235712;0.0043;0.0083;-0.0162;
473997985233089;-0.0012;-0.0039;0.0094;
473998005226989;-0.0067;0.0016;-0.0065;
473998025192631;-0.0104;0.0010;0.0021;
473998045172683;0.0043;-0.0015;0.0021;
473998065165324;-0.0128;-0.0003;0.0094;
473998085161183;-0.0025;0.0010;0.0021;
473998105188939;-0.0080;-0.0021;-0.0126;
473998125208221;0.0061;0.0065;0.0186;
473998145176324;-0.0049;-0.0003;-0.0260;
473998165203221;0.0073;-0.0021;0.0271;
473998185179055;0.0049;0.0028;-0.0199;
473998205164856;-0.0080;-0.0003;0.0058;
473998225204449;0.0006;0.0016;0.0027;
473998245215726;-0.0086;-0.0045;-0.0089;
473998265260519;-0.0006;0.0095;0.0088;
473998285253588;-0.0049;-0.0015;-0.0168;
473998305201719;0.0018;-0.0045;-0.0101;
473998325211842;-0.0141;0.0077;-0.0046;
473998345216519;0.0018;-0.0052;0.0143;
473998365220646;0.0037;0.0040;-0.0199;
473998385187113;0.0067;-0.0015;0.0210;
473998405169308;-0.0031;-0.0021;-0.0217;
473998425197694;-0.0012;0.0034;0.0180;
473998445254829;0.0024;-0.0027;-0.0138;
473998465246647;-0.0159;0.0058;0.0021;
473998485245210;-0.0012;-0.0058;0.0100;
473998505201299;0.0006;0.0028;-0.0193;
473998525214613;0.0073;-0.0009;0.0222;
473998545262212;-0.0037;-0.0015;-0.0254;
473998565289415;0.0104;0.0010;0.0125;
473998585264325;0.0043;0.0083;-0.0193;
473998605249664;-0.0006;-0.0094;0.0180;
473998625241853;0.0006;0.0058;-0.0083;
473998645243082;-0.0037;-0.0015;-0.0004;
473998665241235;-0.0037;0.0058;-0.0022;
473998685230427;-0.0122;-0.0021;-0.0016;
473998705197196;0.0049;0.0016;0.0033;
473998729189003;-0.0159;0.0016;0.0106;
473998765152196;0.0043;-0.0094;0.0198;
473998785168542;0.0012;0.0083;-0.0162;
473998805180273;-0.0018;-0.0039;0.0094;
473998825149734;-0.0012;-0.0003;-0.0266;
473998845184773;0.0049;0.0028;0.0210;
473998865217427;0.0043;-0.0009;-0.0162;
473998885297388;-0.0141;0.0003;0.0082;
473998905149465;-0.0031;0.0028;0.0003;
473998925249850;-0.0067;-0.0021;-0.0101;
473998945140734;0.0061;0.0065;0.0161;
473998965138311;-0.0049;-0.0015;-0.0236;
473998985213696;0.0104;-0.0003;0.0247;
473999005132388;0.0067;0.0046;-0.0236;
473999025129350;-0.0110;-0.0033;0.0119;
473999045159927;-0.0043;0.0016;0.0021;
473999065224080;-0.0086;-0.0021;0.0155;
473999085221350;-0.0049;-0.0009;-0.0187;
473999105231311;-0.0067;0.0028;0.0137;
473999125246773;-0.0012;-0.0027;-0.0095;
473999145219965;-0.0128;0.0077;-0.0034;
473999165215696;0.0037;-0.0058;0.0155;
473999185229773;0.0030;0.0034;-0.0187;
473999205218696;0.0098;0.0003;0.0198;
473999225220465;-0.0018;-0.0009;-0.0242;
473999245298465;-0.0031;0.0022;0.0204;
473999265225042;-0.0043;-0.0045;-0.0132;
473999285232234;-0.0159;0.0071;-0.0010;
473999305230734;0.0030;-0.0027;0.0100;
473999325236349;-0.0080;-0.0033;0.0015;
473999345219042;-0.0055;0.0083;-0.0022;
473999365221234;-0.0092;-0.0021;-0.0034;
473999385221811;0.0067;-0.0021;0.0113;
473999405229811;-0.0012;0.0089;-0.0181;
473999425156042;0.0037;-0.0082;0.0155;
473999445230734;0.0055;0.0071;-0.0107;
473999465309042;-0.0073;-0.0015;0.0039;
473999485314734;-0.0098;0.0034;-0.0046;
473999505232618;-0.0116;-0.0003;0.0027;
473999525161272;0.0061;0.0003;-0.0004;
473999545221157;-0.0055;0.0065;-0.0095;
473999565218580;-0.0037;0.0010;0.0015;
473999585219811;-0.0061;-0.0003;-0.0150;
473999605218888;0.0055;0.0071;0.0192;
473999625153811;-0.0055;-0.0015;0.0192;
473999645314772;0.0079;0.0010;0.0241;
473999665238888;0.0030;0.0016;-0.0205;
473999685153349;-0.0080;-0.0015;0.0113;
473999705188195;-0.0006;0.0040;-0.0040;
473999725154618;-0.0061;-0.0039;-0.0034;
473999745231811;-0.0012;0.0077;0.0058;
473999765801234;-0.0080;-0.0021;-0.0126;
473999785154272;0.0092;-0.0015;0.0180;
473999805177118;0.0030;0.0065;-0.0193;
473999825194311;0.0043;-0.0027;0.0106;
473999845148080;0.0012;0.0010;-0.0181;
473999865134964;0.0085;0.0016;0.0216;
473999885128426;-0.0055;-0.0027;-0.0236;
473999905224849;0.0043;0.0022;0.0216;
473999925224041;0.0024;-0.0015;-0.0187;
473999945246118;-0.0153;0.0022;0.0070;
473999965238810;-0.0000;0.0003;0.0027;
473999985155541;-0.0043;-0.0021;-0.0132;
474000005150195;0.0061;0.0065;0.0198;
474000025167003;-0.0055;-0.0009;-0.0236;
474000045221080;0.0055;0.0010;0.0241;
474000065239580;-0.0098;0.0065;-0.0071;
474000085235849;0.0055;-0.0027;0.0113;
474000105220580;0.0043;0.0028;-0.0138;
474000125231849;0.0030;-0.0033;0.0186;
474000145246003;-0.0098;-0.0009;-0.0211;
474000165221503;-0.0037;0.0010;0.0192;
474000185235118;0.0055;-0.0027;-0.0156;
474000205217656;-0.0128;0.0071;-0.0016;
474000225228926;0.0006;-0.0052;0.0143;
474000245228541;-0.0025;0.0016;-0.0187;
474000265325810;0.0098;0.0022;0.0192;
474000285222541;-0.0037;-0.0027;-0.0211;
474000305260656;-0.0000;0.0022;0.0222;
474000325239156;-0.0018;0.0052;-0.0144;
474000345258503;0.0055;-0.0070;0.0155;
474000365241887;0.0030;0.0077;-0.0132;
474000385157695;-0.0043;-0.0045;0.0113;
474000405218464;-0.0086;0.0028;-0.0107;
474000425235887;-0.0086;0.0010;0.0033;
474000445236156;0.0067;-0.0015;0.0015;
474000465333425;-0.0067;0.0065;-0.0095;
474000485314118;0.0061;-0.0052;0.0143;
474000505321349;0.0043;0.0040;-0.0156;
474000525231425;0.0006;-0.0045;0.0180;
474000545252349;-0.0110;0.0003;-0.0187;
474000565325233;0.0140;0.0028;0.0180;
474000585220695;0.0061;0.0058;-0.0223;
474000605229195;-0.0110;-0.0058;0.0155;
474000625168156;-0.0043;0.0040;-0.0052;
474000645233579;-0.0055;0.0003;-0.0065;
474000665322195;0.0024;0.0065;0.0045;
474000685231156;-0.0049;-0.0009;-0.0083;
474000705260233;0.0104;0.0003;0.0106;
474000725161348;0.0006;0.0040;-0.0156;
474000745824425;0.0030;-0.0052;0.0180;
474000765223002;0.0018;0.0058;-0.0126;
474000785141848;-0.0043;-0.0064;0.0137;
474000805191156;-0.0092;0.0022;-0.0077;
474000825140079;0.0061;0.0003;0.0198;
474000845132348;-0.0025;0.0052;-0.0217;
474000865152464;-0.0135;0.0016;0.0051;
474000885153541;-0.0031;0.0028;0.0027;
474000905158387;-0.0086;-0.0027;-0.0034;
474000925238233;0.0061;0.0083;0.0082;
474000945165925;-0.0025;-0.0033;-0.0101;
474000965165310;0.0122;-0.0027;0.0167;
474000985160887;0.0006;0.0089;-0.0260;
474001005151656;-0.0073;-0.0045;0.0106;
474001025157502;-0.0006;0.0052;-0.0120;
474001045165694;-0.0061;-0.0027;0.0051;
474001065243310;-0.0098;-0.0052;-0.0168;
474001085151079;0.0018;0.0022;0.0204;
474001105147310;0.0067;0.0010;-0.0205;
474001125230656;-0.0171;0.0010;0.0119;
474001145244387;0.0006;0.0028;-0.0040;
474001165238194;-0.0165;0.0022;-0.0126;
474001185242194;0.0092;0.0052;0.0229;
474001205229194;0.0043;0.0003;0.0229;
474001225164694;0.0061;0.0010;0.0229;
474001245237848;-0.0006;0.0003;-0.0162;
474001265332540;-0.0104;-0.0070;0.0125;
474001285318617;0.0055;0.0010;0.0003;
474001305237194;-0.0080;0.0022;0.0113;
474001325254617;-0.0165;-0.0003;-0.0175;
474001345227079;-0.0067;0.0010;0.0155;
474001365314271;0.0006;0.0022;-0.0120;
474001385253002;-0.0183;0.0083;-0.0010;
474001405229809;0.0128;0.0003;0.0045;
474001425232809;0.0171;0.0022;-0.0107;
474001445230925;0.0098;-0.0039;0.0119;
474001465325117;-0.0141;0.0022;-0.0236;
474001485338232;0.0116;0.0034;0.0155;
474001505339002;0.0128;-0.0021;-0.0095;
474001525161386;-0.0189;-0.0021;0.0088;
474001545230502;-0.0202;-0.0064;0.0229;
474001565294232;0.0177;-0.0021;-0.0059;
474001585232425;0.0061;0.0034;0.0070;
474001605226655;-0.0116;-0.0009;-0.0144;
474001625226425;0.0067;-0.0064;0.0204;
474001645226963;-0.0025;0.0083;-0.0205;
474001665237732;0.0055;-0.0021;0.0180;
474001685286040;0.0079;0.0052;-0.0156;
474001705265155;-0.0006;0.0022;0.0082;
474001725152963;-0.0098;0.0016;-0.0077;
474001750080232;-0.0055;-0.0015;0.0198;
474001785542155;0.0049;0.0089;-0.0248;
474001805140886;-0.0018;0.0003;0.0051;
474001825145501;-0.0061;-0.0027;-0.0168;
474001845148732;0.0085;0.0022;0.0210;
474001865130771;-0.0000;-0.0052;-0.0205;
474001885128040;0.0165;-0.0009;0.0259;
474001905133617;-0.0006;0.0034;-0.0266;
474001925130848;-0.0031;-0.0070;0.0235;
474001945226155;-0.0043;0.0052;-0.0175;
474001965290309;-0.0080;-0.0033;0.0058;
474001985174847;0.0018;0.0046;-0.0016;
474002005247771;-0.0049;-0.0003;-0.0010;
474002025153655;0.0018;0.0040;0.0021;
474002045155694;0.0049;0.0071;-0.0150;
474002065250347;-0.0165;-0.0058;-0.0016;
474002085225924;0.0092;0.0052;-0.0004;
474002105238732;0.0055;0.0022;-0.0266;
474002125222809;0.0299;-0.0052;0.0345;
474002145224463;-0.0299;-0.0088;0.0345;
474002165170232;0.0073;0.0022;0.0167;
474002185313040;0.0195;-0.0229;-0.0065;
474002205221193;0.0849;0.0413;-0.0199;
474002225226309;-0.1228;0.0187;-0.0144;
474002245220117;0.1270;-0.0522;0.0394;
474002265254232;0.0421;0.0010;0.0161;
474002285157886;-0.1167;-0.0039;-0.0437;
474002305252309;0.0837;0.0003;-0.0572;
474002325152001;0.0373;-0.0375;0.0925;
474002345150270;-0.0043;0.0132;-0.0065;
474002365167463;0.0482;0.0590;-0.0920;
474002385143847;0.0739;-0.0027;0.0235;
474002405153078;-0.0135;-0.0094;0.0400;
474002425147347;-0.0489;0.0358;0.0064;
474002445152655;0.0861;0.0346;-0.0688;
474002465163463;0.0904;-0.0455;0.0100;
474002485258655;0.0397;-0.1041;0.0394;
474002505185155;0.1319;-0.0064;-0.0113;
474002525158501;0.1234;-0.0070;-0.0688;
474002545223616;-0.0189;-0.0388;0.0302;
474002565336386;-0.0220;0.0223;-0.0052;
474002585174770;-0.0257;0.0572;-0.0468;
474002605231770;-0.0000;0.0034;0.0058;
474002625163270;-0.0110;-0.0070;0.0143;
474002645156424;-0.0690;0.0413;-0.0052;
474002665251270;-0.0238;0.0168;-0.0266;
474002685258001;-0.0422;0.0236;-0.0010;
474002705260924;-0.0935;0.0254;0.0284;
474002725162616;-0.0690;0.0022;-0.0187;
474002745163655;-0.0855;0.0504;-0.0266;
474002765150885;-0.0678;0.0260;0.0106;
474002785267847;-0.0861;-0.0076;0.0070;
474002805145539;0.0666;-0.0656;-0.0187;
474002825137116;0.1136;-0.0400;0.0027;
474002845130578;0.1154;-0.0571;0.0058;
474002865228731;0.0452;-0.0638;-0.0059;
474002885155462;0.0928;-0.0418;-0.0107;
474002905161616;0.1222;-0.0528;0.0009;
474002925158116;0.0782;-0.0669;-0.0077;
474002945159462;0.0806;-0.0534;-0.0010;
474002965152847;0.1118;-0.0601;0.0174;
474002985295616;0.0928;-0.0626;-0.0040;
474003005154885;0.0818;-0.0461;-0.0089;
474003025155578;0.0403;-0.0436;0.0210;
474003045250654;0.0049;-0.0229;-0.0181;
474003065164462;0.0067;-0.0424;-0.0150;
474003085160270;0.0305;-0.0571;0.0210;
474003105224577;0.0654;-0.0705;0.0143;
474003125153924;0.0452;-0.0565;-0.0193;
474003145248308;0.0623;-0.0357;0.0161;
474003165265462;-0.0226;-0.0491;0.0039;
474003185276924;-0.0617;-0.0223;0.0155;
474003205155116;-0.0299;-0.0229;-0.0156;
474003225225577;-0.0446;-0.0491;-0.0187;
474003245152885;0.0214;-0.0797;0.0192;
474003265160693;0.0812;-0.0895;-0.0260;
474003285243270;0.0464;-0.0534;0.0064;
474003305276000;0.0501;-0.0907;0.0161;
474003325162808;0.0446;-0.0913;-0.0199;
474003345226385;-0.0397;-0.0497;0.0009;
474003365216193;-0.0428;-0.0766;-0.0333;
474003385198154;0.0073;-0.0705;0.0265;
474003405154231;0.0733;-0.1145;-0.0223;
474003425153500;0.0079;-0.0986;-0.0028;
474003445158231;-0.0458;-0.0888;-0.0181;
474003465162000;0.0134;-0.0571;-0.0126;
474003485153654;0.0116;-0.0711;-0.0040;
474003505278154;-0.0513;-0.1023;0.0058;
474003525165385;-0.1008;-0.1182;-0.0083;
474003545174654;-0.0409;-0.1340;-0.0046;
474003565268231;-0.0843;-0.1072;-0.0071;
474003585154577;-0.0470;-0.1059;-0.0242;
474003605161654;0.0110;-0.0943;0.0320;
474003625220769;0.0177;-0.1249;0.0192;
474003645233346;0.0263;-0.1237;0.0271;
474003665160846;-0.0098;-0.1212;-0.0052;
474003685153462;-0.0116;-0.1206;-0.0260;
474003705257077;0.0061;-0.1353;0.0296;
474003725149615;-0.0568;-0.1450;-0.0083;
474003745156462;-0.1008;-0.1072;-0.0187;
474003765151539;-0.0165;-0.1237;-0.0168;
474003785544692;0.0024;-0.1212;-0.0388;
474003805154269;-0.1069;-0.1573;0.0076;
474003825145500;-0.1112;-0.1249;-0.0211;
474003845142538;-0.0189;-0.0962;-0.0749;
474003865132231;0.1264;-0.1536;0.0186;
474003885128577;-0.0776;-0.1383;0.0094;
474003905128154;-0.2199;-0.1121;-0.0755;
474003925134000;0.0635;-0.1066;-0.0083;
474003945156615;0.1967;-0.1395;-0.0340;
474003965171961;-0.1362;-0.1420;0.0113;
474003985156269;-0.1992;-0.1304;-0.0254;
474004005256269;0.1442;-0.0992;-0.0724;
474004025189884;0.1344;-0.1286;-0.0144;
474004045149615;-0.1961;-0.1340;-0.0077;
474004065161154;0.0446;-0.1145;-0.0547;
474004085160308;0.1332;-0.1316;-0.0022;
474004105257692;-0.0483;-0.1493;0.0045;
474004125219923;-0.0477;-0.1176;-0.0120;
474004145163923;0.1228;-0.1188;-0.0309;
474004165267731;0.1044;-0.1231;-0.0168;
474004185154231;-0.0916;-0.1389;0.0314;
474004205280846;-0.0550;-0.1499;0.0064;
474004225226307;0.1087;-0.1231;-0.0205;
474004245150115;0.0996;-0.1200;-0.0303;
474004265248654;-0.0929;-0.1194;0.0045;
474004285150807;-0.0397;-0.1292;-0.0333;
474004305248461;0.0892;-0.1493;0.0125;
474004325148423;-0.0861;-0.1389;0.0064;
474004345149615;-0.0018;-0.1078;-0.0089;
474004365163961;0.0458;-0.1059;-0.0431;
474004385221500;0.0556;-0.1292;-0.0004;
474004405147346;-0.0422;-0.1481;0.0174;
474004425151038;0.0232;-0.1267;-0.0468;
474004445223269;-0.0153;-0.1169;-0.0052;
474004465150961;0.0696;-0.1512;-0.0285;
474004485152769;0.0446;-0.1139;0.0149;
474004505254807;0.0085;-0.1512;-0.0504;
474004525173846;-0.0098;-0.1212;-0.0205;
474004545165653;-0.0287;-0.1432;0.0149;
474004565154576;0.0513;-0.1304;-0.0327;
474004585157730;0.0256;-0.1224;-0.0370;
474004605278730;0.0153;-0.1505;-0.0364;
474004625154192;0.0586;-0.1371;0.0339;
474004645154115;-0.0025;-0.1481;-0.0309;
474004665153692;0.0061;-0.1273;-0.0437;
474004685147038;0.0959;-0.1218;0.0143;
474004705158269;0.0482;-0.1719;0.0192;
474004725160576;-0.0690;-0.1560;0.0009;
474004758952807;0.1185;-0.1298;0.0314;
474004785172230;0.0782;-0.1762;0.0558;
474004805140422;0.0568;-0.1738;-0.0382;
474004825132038;-0.0104;-0.1701;-0.0205;
474004845178961;0.0403;-0.1896;0.0192;
474004865179999;0.0751;-0.1823;0.0198;
474004885184845;-0.0055;-0.1829;-0.0651;
474004905135422;0.0244;-0.1316;-0.0431;
474004925169653;0.0531;-0.1866;0.0265;
474004945174538;-0.0446;-0.2330;-0.0425;
474004965263961;0.0666;-0.1157;-0.0498;
474004985156499;-0.0648;-0.1579;-0.0327;
474005005276961;-0.0067;-0.2300;-0.0236;
474005025169999;0.0092;-0.1457;0.0216;
474005045153499;-0.0385;-0.1139;-0.0242;
474005065157076;-0.0452;-0.2232;-0.0712;
474005085153384;0.0385;-0.1518;0.0546;
474005105170922;-0.0293;-0.1939;-0.0223;
474005125150614;-0.0507;-0.1829;-0.0639;
474005145307768;0.0006;-0.1408;0.0503;
474005165241076;0.0318;-0.2281;0.0174;
474005185241499;-0.0330;-0.2012;0.0186;
474005205345499;0.0049;-0.1591;-0.0089;
474005225293537;0.0318;-0.1933;0.0375;
474005245230076;-0.0153;-0.2403;-0.0046;
474005265232614;0.0568;-0.1609;-0.0156;
474005285218691;0.0092;-0.1774;0.0247;
474005305240576;0.0910;-0.2171;0.0595;
474005325240037;-0.0306;-0.2324;-0.0291;
474005345315460;-0.0263;-0.1774;-0.0028;
474005365260384;0.0660;-0.1945;0.0271;
474005385218230;-0.0080;-0.2544;0.0284;
474005405221499;-0.0342;-0.2397;-0.0181;
474005425223691;0.0721;-0.1689;-0.0083;
474005445221845;0.0049;-0.2226;-0.0126;
474005465237922;-0.0849;-0.2636;0.0021;
474005485238537;0.0489;-0.2403;0.0082;
474005505242345;0.0983;-0.1988;-0.0181;
474005525242768;-0.0880;-0.2342;0.0125;
474005545151653;0.0440;-0.2605;0.0461;
474005565242499;-0.0831;-0.2800;-0.0113;
474005585236960;-0.0507;-0.2556;0.0131;
474005605347230;0.1148;-0.2403;-0.0248;
474005625265383;0.0079;-0.2538;0.0436;
474005645241537;-0.0806;-0.3057;-0.0083;
474005665231383;-0.0635;-0.2690;0.0033;
474005685233345;0.0892;-0.2574;-0.0315;
474005705323960;0.0837;-0.2623;0.0430;
474005725235999;-0.0642;-0.3057;-0.0071;
474005745156614;-0.0819;-0.3014;0.0247;
474005765143537;0.0501;-0.2880;-0.0291;
474005785163152;-0.0470;-0.3094;0.0155;
474005805139652;-0.0348;-0.2953;0.0021;
474005825133729;-0.0018;-0.2428;-0.0394;
474005845134999;0.0092;-0.2788;0.0186;
474005865138922;-0.0055;-0.3680;0.0577;
474005885128075;-0.0159;-0.3405;0.0204;
474005905128845;0.0318;-0.2941;-0.0352;
474005925231229;0.0586;-0.2941;0.0216;
474005945163768;0.0586;-0.3314;-0.0028;
474005965149768;-0.0061;-0.3338;0.0045;
474005985230152;-0.0452;-0.3301;-0.0627;
474006005153345;-0.0110;-0.3130;0.0100;
474006025149575;0.0806;-0.3350;-0.0004;
474006045153537;-0.0318;-0.3442;-0.0486;
474006065148268;-0.0092;-0.2984;-0.0486;
474006085146075;0.0800;-0.3430;-0.0059;
474006105147729;0.0354;-0.3307;0.0039;
474006125148614;-0.0568;-0.3436;-0.0749;
474006145150806;-0.0770;-0.3332;-0.0566;
474006165237383;0.0055;-0.3784;-0.0101;
474006185233806;0.0391;-0.3735;0.0033;
474006205229114;0.0183;-0.3295;-0.0413;
474006225230921;0.0208;-0.3448;-0.0474;
474006245148075;-0.0141;-0.3619;-0.0407;
474006265240537;-0.0220;-0.3680;-0.0706;
474006285223383;0.0067;-0.3521;-0.0291;
474006305226998;-0.0189;-0.3833;-0.0175;
474006325230191;-0.0232;-0.3839;-0.0407;
474006345233960;-0.0458;-0.3741;-0.0486;
474006365239614;-0.0257;-0.3766;-0.0242;
474006385219614;0.0379;-0.4181;0.0314;
474006405236114;0.0226;-0.3973;-0.0052;
474006425239498;-0.0623;-0.3289;-0.0755;
474006445226883;0.0049;-0.3772;-0.0358;
474006465223383;0.0611;-0.4230;0.0235;
474006485219767;0.0140;-0.4157;-0.0297;
474006505223421;-0.1100;-0.4034;-0.0028;
474006525220267;0.0208;-0.4132;-0.0004;
474006545162652;0.0238;-0.3857;-0.0651;
474006565223844;-0.0513;-0.3711;-0.0724;
474006585153306;-0.0727;-0.4071;-0.0260;
474006605155575;-0.0104;-0.4114;0.0003;
474006625150075;-0.0342;-0.3790;-0.0737;
474006645151383;-0.0067;-0.3741;-0.0449;
474006665151113;0.0666;-0.4126;-0.0113;
474006685222536;0.0073;-0.3986;-0.0449;
474006705151306;-0.0428;-0.3772;-0.0950;
474006725146729;0.0232;-0.3674;-0.0889;
474006747118459;0.0525;-0.3979;-0.0046;
474006765310421;0.0336;-0.4267;0.0119;
474006785156383;0.0281;-0.3949;-0.0223;
474006805207652;-0.0440;-0.3760;-0.0083;
474006825214729;0.0556;-0.4535;0.0638;
474006845127306;0.0861;-0.4737;0.0821;
474006865131844;-0.0238;-0.3998;-0.0547;
474006885131536;0.0305;-0.3442;-0.1299;
474006905132267;-0.0086;-0.4419;0.0882;
474006925131690;0.0708;-0.4780;0.0491;
474006945155805;0.0415;-0.3509;-0.0718;
474006965151459;-0.0226;-0.3424;-0.0779;
474006985151459;-0.0495;-0.4224;0.0766;
474007005146075;-0.0257;-0.4517;0.0766;
474007025153575;0.0079;-0.3998;-0.0187;
474007045149190;-0.0287;-0.4254;0.0210;
474007065155228;-0.0269;-0.4193;-0.0364;
474007085151113;-0.0269;-0.3369;-0.1482;
474007105145613;-0.1057;-0.3613;-0.1134;
474007125163498;-0.0776;-0.4132;-0.0089;
474007145244921;-0.0061;-0.3961;-0.0364;
474007165157036;-0.0758;-0.3784;-0.0376;
474007185150228;-0.1057;-0.4157;0.0326;
474007205157613;-0.0684;-0.4389;0.0235;
474007225154536;-0.0251;-0.3778;-0.0523;
474007245145459;-0.0709;-0.3698;-0.0804;
474007265150074;-0.0684;-0.3992;-0.0260;
474007285137959;0.0110;-0.3662;-0.0639;
474007305138151;-0.0000;-0.3650;-0.0847;
474007325136690;-0.0446;-0.4010;0.0094;
474007345195651;-0.0171;-0.4028;-0.0065;
474007365140844;0.0311;-0.3442;-0.0712;
474007385153651;-0.0293;-0.3711;0.0033;
474007405146074;-0.0562;-0.4260;0.0284;
474007425140728;-0.0318;-0.3698;-0.0278;
474007445238728;0.0293;-0.3155;-0.1195;
474007465229728;0.0006;-0.3271;-0.0883;
474007485157074;0.0110;-0.3503;-0.0443;
474007505236651;-0.0025;-0.3387;-0.0596;
474007525229690;0.0220;-0.3246;-0.0847;
474007545229690;-0.0189;-0.3228;-0.0431;
474007565231113;-0.0037;-0.3222;-0.0504;
474007585264074;0.0531;-0.3014;-0.0975;
474007605327382;0.0220;-0.2800;-0.0669;
474007625149728;-0.0361;-0.3136;-0.0688;
474007645336882;0.0415;-0.3118;-0.0150;
474007665356997;0.0672;-0.3008;-0.0779;
474007685225805;-0.0055;-0.2782;-0.0596;
474007705230113;-0.0147;-0.2910;-0.0437;
474007725218382;0.0684;-0.2825;-0.0590;
474007745340690;0.0427;-0.2849;-0.0327;
474007765151920;-0.0055;-0.2984;-0.0285;
474007785172382;0.0708;-0.2849;-0.0456;
474007805151920;0.0116;-0.2935;-0.0254;
474007825157805;-0.0183;-0.3210;-0.0095;
474007847027189;0.0666;-0.2923;-0.0443;
474007865132113;0.0641;-0.2574;-0.0737;
474007885132497;-0.0080;-0.2849;-0.0596;
474007905146228;0.0342;-0.3167;0.0161;
474007925150843;0.0629;-0.2947;-0.0401;
474007945161189;0.0220;-0.2538;-0.0834;
474007965256305;0.0318;-0.2550;-0.0535;
474007985263497;0.0214;-0.3167;0.0113;
474008005256651;-0.0000;-0.3020;-0.0113;
474008025154882;-0.0098;-0.2104;-0.0847;
474008045278612;0.0287;-0.2483;-0.0327;
474008065305305;0.0061;-0.2752;-0.0120;
474008085158074;-0.0244;-0.2464;-0.0584;
474008105151420;0.0043;-0.2409;-0.0816;
474008125149497;0.0910;-0.2587;-0.0486;
474008145159228;0.0177;-0.3045;0.0357;
474008165148843;-0.0470;-0.3002;-0.0046;
474008185154343;0.0501;-0.2171;-0.0963;
474008205158458;0.0623;-0.2190;-0.0437;
474008225154920;-0.0947;-0.2458;-0.0187;
474008245224958;-0.0678;-0.2550;-0.0052;
474008265152958;0.1008;-0.2550;-0.0651;
474008285176728;0.0018;-0.2318;-0.0511;
474008305156458;-0.0452;-0.2440;-0.0401;
474008325231535;0.0427;-0.2135;-0.0394;
474008345153228;0.0171;-0.2098;-0.0914;
474008365230035;-0.0409;-0.2251;-0.0266;
474008385248804;-0.0434;-0.2636;-0.0327;
474008405148189;0.0220;-0.2348;-0.0437;
474008425148266;0.0336;-0.2190;-0.0511;
474008445225381;-0.0470;-0.2238;-0.0223;
474008465235843;-0.0116;-0.2385;0.0051;
474008485258497;0.0263;-0.2183;-0.0437;
474008505238304;-0.0342;-0.2043;-0.0737;
474008525144727;0.0043;-0.1982;-0.0798;
474008545147343;0.0159;-0.2080;0.0076;
474008565153227;-0.0183;-0.2483;-0.0706;
474008585232958;-0.0464;-0.1774;-0.0596;
474008605326650;0.0067;-0.1860;-0.0547;
474008625236112;-0.0116;-0.1591;-0.0712;
474008645182227;-0.0171;-0.1548;-0.0474;
474008665241843;-0.0397;-0.1951;-0.0535;
474008685280227;0.0049;-0.1652;-0.0303;
474008705156266;-0.0098;-0.1481;-0.0999;
474008725216804;-0.0159;-0.1182;-0.0321;
474008750787381;-0.0043;-0.1200;-0.0401;
474008785256496;-0.0312;-0.1096;-0.0340;
474008805147689;0.0263;-0.1402;-0.0529;
474008825143920;0.0098;-0.1127;-0.0010;
474008845163420;-0.0373;-0.1200;-0.0462;
474008865128189;-0.0098;-0.1096;-0.0578;
474008885138843;0.0110;-0.1108;-0.0022;
474008905126804;-0.0098;-0.1041;-0.0285;
474008925130727;-0.0721;-0.0937;-0.0236;
474008945160996;0.0360;-0.1084;-0.0394;
474008965219766;-0.0037;-0.0650;-0.0425;
474008985143342;-0.0635;-0.0937;-0.0107;
474009005217458;-0.0214;-0.0950;-0.0468;
474009025270842;0.0244;-0.0681;-0.0297;
474009045155996;0.0214;-0.0540;-0.0449;
474009065262458;0.0110;-0.0662;0.0161;
474009085159765;0.0256;-0.0968;0.0516;
474009105157958;0.0739;-0.0626;-0.0401;
474009125151227;0.0140;-0.0229;-0.0407;
474009145149189;-0.0135;-0.0632;-0.0168;
474009165152996;0.0507;-0.0699;-0.0223;
474009185236573;0.0269;-0.0436;-0.0242;
474009205203650;0.0513;-0.0278;-0.0529;
474009225196881;-0.0135;-0.0216;-0.0547;
474009245140727;0.0305;-0.0491;0.0149;
474009265205958;0.0122;-0.0198;-0.0327;
474009285232265;-0.0189;-0.0003;-0.0431;
474009305234227;0.0263;-0.0143;-0.0223;
474009325568227;-0.0122;-0.0394;0.0241;
474009345227111;0.0531;-0.0265;-0.0309;
474009365232227;-0.0617;-0.0003;-0.0217;
474009385152919;0.0146;0.0181;-0.0688;
474009405142342;0.0415;-0.0094;0.0015;
474009425150227;0.0067;-0.0546;0.0558;
474009445157304;-0.0849;0.0095;-0.0498;
474009465159073;-0.0373;0.0584;-0.0651;
474009485171958;0.0263;-0.0216;0.0167;
474009505230304;-0.0061;-0.0180;-0.0059;
474009525223650;0.0354;0.0388;-0.0321;
474009545149727;0.0678;-0.0131;0.0485;
474009565162188;0.0464;0.0016;0.0094;
474009585172496;-0.0929;0.0132;0.0131;
474009605260380;0.0617;0.0199;-0.0107;
474009625245380;0.0953;-0.0088;0.0339;
474009645274150;0.0336;-0.0113;0.0400;
474009665260342;-0.0556;0.0046;0.0027;
474009685161265;0.0220;0.0187;0.0076;
474009705162611;0.1106;0.0174;-0.0046;
474009725231650;-0.0006;-0.0424;0.0620;
474009745162303;-0.0391;0.0181;-0.0315;
474009765198727;0.1075;-0.0143;0.0827;
474009785163765;0.0208;0.0040;-0.0309;
474009805142803;-0.0959;0.0339;0.0076;
474009825147188;-0.0299;0.0003;0.0113;
474009845124957;0.0666;-0.0223;0.0424;
474009865131919;0.0043;0.0272;-0.0401;
474009885154534;-0.0855;0.0352;-0.0266;
474009905159726;-0.0452;-0.0100;0.0571;
474009925147342;0.0299;-0.0168;0.0259;
474009945149380;0.0275;0.0303;-0.0034;
474009965149726;-0.0617;0.0156;-0.0309;
474009985162765;-0.0330;-0.0021;0.0571;
474010005164342;0.0745;-0.0100;0.0082;
474010025147303;0.0189;0.0333;-0.0529;
474010045274919;-0.0446;0.0156;0.0021;
474010065149419;-0.0128;-0.0143;0.0406;
474010085326534;0.0434;0.0095;-0.0052;
474010105163649;0.0226;0.0181;-0.0059;
474010125147919;-0.0525;-0.0143;0.0430;
474010145154572;0.0030;-0.0296;0.0149;
474010165164188;0.0544;0.0168;-0.0095;
474010185162534;0.0177;0.0126;-0.0535;
474010205159149;-0.0269;-0.0162;0.0381;
474010225147034;0.0055;-0.0394;-0.0022;
474010245162034;0.0183;0.0181;-0.0205;
474010265237380;0.0037;-0.0125;0.0339;
474010285151149;-0.0428;-0.0308;0.0448;
474010305160611;-0.0330;-0.0162;-0.0144;
474010325230842;0.0464;-0.0082;0.0137;
474010345137842;0.0464;-0.0174;0.0265;
474010365257918;-0.1399;-0.0314;0.0143;
474010385231188;-0.0611;-0.0113;0.0235;
474010405199341;-0.0086;-0.0180;-0.0156;
474010425147072;-0.0483;-0.0088;0.0082;
474010445247495;-0.0868;-0.0394;0.0113;
474010465147841;-0.0916;-0.0375;-0.0077;
474010485241880;0.0030;0.0022;-0.0321;
474010505159341;-0.0177;-0.0070;-0.0211;
474010525156803;-0.0794;-0.0278;0.0125;
474010545218034;-0.0721;-0.0308;-0.0034;
474010565217918;-0.0061;-0.0265;0.0058;
474010585158149;-0.0098;-0.0412;0.0106;
474010605237264;-0.0153;-0.0009;0.0106;
474010625155072;0.0153;0.0248;-0.0633;
474010645235149;0.0238;-0.0223;-0.0046;
474010665152649;0.0061;-0.0443;0.0271;
474010685237264;0.0061;-0.0107;-0.0340;
474010705162303;-0.0495;0.0107;-0.0346;
474010725152072;0.0366;-0.0113;-0.0248;
474010745149418;0.0214;-0.0449;0.0229;
474010765155341;-0.0385;0.0113;-0.0669;
474010785170226;-0.0153;0.0065;-0.0309;
474010805150803;0.0104;-0.0253;0.0027;
474010825130764;0.0012;-0.0094;-0.0168;
474010845128226;-0.0299;0.0236;-0.0382;
474010865216341;0.0104;0.0113;-0.0077;
474010885150764;0.0373;-0.0210;0.0180;
474010905243380;-0.0776;-0.0247;0.0320;
474010925155110;-0.0373;0.0003;-0.0211;
474010945147572;0.0550;0.0291;-0.0346;
474010965147418;0.0006;0.0046;0.0058;
474010985148072;-0.0733;-0.0174;0.0265;
474011005149264;-0.0220;0.0187;-0.0052;
474011025150956;0.0183;0.0083;-0.0101;
474011045238033;-0.0098;-0.0155;0.0308;
474011065150303;0.0244;-0.0278;0.0271;
474011085149456;0.0476;0.0095;0.0076;
474011105153033;0.0018;0.0266;-0.0498;
474011125153072;0.0195;0.0034;0.0033;
474011145146802;0.0250;-0.0320;0.0632;
474011165146726;0.0116;-0.0003;-0.0352;
474011185151687;-0.0141;0.0278;-0.0022;
474011205150341;-0.0061;-0.0131;0.0137;
474011225152572;0.0263;0.0040;-0.0120;
474011245236572;0.0201;0.0400;-0.0333;
474011265148495;-0.0348;0.0095;-0.0113;
474011285238187;-0.0257;-0.0180;0.0503;
474011305256264;0.0110;0.0071;0.0064;
474011325232956;0.0635;0.0303;0.0064;
474011345232418;0.0696;-0.0052;0.0302;
474011365241764;-0.0263;-0.0021;0.0064;
474011385227456;-0.0422;0.0113;-0.0138;
474011405236225;0.0739;0.0248;-0.0217;
474011425232456;0.0941;0.0181;-0.0291;
474011445230802;-0.0165;-0.0094;0.0180;
474011465223533;-0.0171;0.0083;0.0039;
474011485230033;0.0531;0.0303;-0.0364;
474011505251918;-0.0006;-0.0052;0.0595;
474011525233456;-0.0067;-0.0058;0.0326;
474011545222225;0.0275;0.0578;-0.0633;
474011565216802;0.0201;0.0590;-0.0474;
474011585224841;-0.0709;-0.0137;0.0436;
474011605242610;0.0287;-0.0088;0.0064;
474011625240956;0.0971;0.0413;-0.0370;
474011645239225;0.0122;0.0113;-0.0150;
474011665215533;-0.0348;-0.0058;0.0192;
474011685255148;0.0806;0.0065;-0.0022;
474011705240879;0.1283;0.0260;-0.0456;
474011725225110;-0.0244;0.0162;-0.0028;
474011749029417;-0.0214;0.0181;0.0125;
474011765154994;0.0818;0.0364;-0.0315;
474011785156379;0.0269;0.0339;-0.0193;
474011805145456;-0.0806;-0.0021;0.0302;
474011825193456;0.0318;-0.0296;0.0284;
474011845170994;0.1234;0.0181;-0.0236;
474011865217417;0.0055;0.0675;-0.0669;
474011885219110;-0.0764;0.0046;0.0308;
474011905153225;0.0085;-0.0424;0.0766;
474011925160225;0.1026;0.0627;-0.0566;
474011945156263;-0.0648;0.0816;-0.0181;
474011965148648;-0.0562;-0.0070;0.0662;
474011985153802;0.0733;0.0138;0.0577;
474012005144148;-0.0403;0.0706;-0.0529;
474012025149417;-0.1026;0.0272;0.0320;
474012045237610;0.0580;0.0217;0.0339;
474012065236686;0.0476;0.0449;-0.0633;
474012085156148;-0.1344;0.0407;0.1053;
474012105147340;-0.0202;-0.0174;-0.0205;
474012125163879;0.1631;0.0510;-0.0016;
474012145152494;-0.0135;-0.0119;-0.0113;
474012165147225;-0.1387;-0.0302;0.0711;
474012185145686;0.0837;0.0174;-0.0388;
474012205234571;0.0861;0.0321;-0.0394;
474012225153802;-0.0220;0.0016;0.0149;
474012245144032;0.0256;0.0113;-0.0541;
474012265137379;-0.0171;-0.0027;0.0583;
474012285141840;0.1698;0.0156;-0.0138;
474012305132071;-0.0525;0.0333;-0.0010;
474012325145648;-0.1570;0.0529;-0.0388;
474012345150532;0.0006;0.0718;-0.0223;
474012365232571;0.1234;-0.0400;0.0290;
474012385195417;-0.1191;-0.0326;0.0925;
474012405151378;-0.0122;0.0303;-0.0718;
474012425223417;0.0965;0.0730;-0.0242;
474012445151225;-0.0409;0.0150;0.0058;
474012465228109;-0.0495;-0.0070;0.0210;
474012485156494;0.0806;0.0297;-0.0303;
474012505242225;-0.2492;0.0901;-0.0443;
474012525290378;0.0012;-0.0210;0.0766;
474012545151186;0.3225;-0.0589;0.0412;
474012565238455;-0.2297;0.0785;-0.0388;
474012585146263;-0.4356;0.0291;-0.0877;
474012605221109;-0.0354;-0.0797;0.1963;
474012625151455;0.3372;0.0028;-0.0547;
474012645232494;-0.0391;0.1555;-0.1433;
474012665150955;-0.4038;0.0284;-0.0077;
474012685232032;-0.0538;-0.0626;0.1200;
474012705183801;0.3030;-0.0229;0.0326;
474012725354455;-0.1430;0.0229;-0.0486;
474012745153917;0.0898;-0.0571;-0.0810;
474012765162840;-0.1588;0.0602;0.0784;
474012785152417;0.0440;0.0352;-0.0737;
474012806180224;0.3311;0.0425;-0.0315;
474012825193878;-0.0458;0.0058;0.0565;
474012845138340;-0.2370;-0.0107;-0.0370;
474012865193647;0.0544;0.0407;-0.0175;
474012885197955;0.2804;0.0321;-0.0682;
474012905159032;-0.1423;0.0278;0.0613;
474012925161840;-0.1857;-0.0198;-0.0486;
474012945154417;0.1808;0.0962;-0.0963;
474012965146570;0.0751;0.0486;-0.1011;
474012985152840;-0.1704;-0.0504;0.0253;
474013005153147;0.0794;0.0492;-0.0675;
474013025157609;0.0482;0.0822;-0.1213;
474013045247532;-0.1436;0.0724;-0.0321;
474013065259147;0.0006;-0.0094;-0.0040;
474013085158955;0.0886;0.0272;-0.0492;
474013105246686;-0.0422;0.0798;-0.0810;
474013125156878;-0.0965;0.0346;-0.0175;
474013145159570;0.0495;0.0132;0.0216;
474013165151109;0.0342;0.0156;-0.0162;
474013185152955;-0.0080;0.0602;-0.0682;
474013205165224;-0.0391;0.0547;-0.0010;
474013225238532;-0.0202;-0.0137;0.0064;
474013245236301;0.0043;0.0535;-0.0437;
474013265151686;-0.0257;0.0608;-0.0022;
474013285150186;-0.0593;-0.0027;0.0369;
474013305151993;0.0373;0.0480;0.0088;
474013325238609;0.0525;0.0645;-0.0333;
474013345165609;-0.0898;0.0443;-0.0016;
474013365240070;-0.0745;-0.0045;0.0308;
474013385252570;0.1124;0.0181;0.0546;
474013405150609;-0.0067;0.0523;-0.0425;
474013425216570;-0.0941;0.0492;-0.0016;
474013445151301;0.0537;0.0266;0.0082;
474013465308955;0.0843;0.0193;0.0320;
474013485279955;-0.0825;0.0590;-0.0181;
474013505153801;0.0122;0.0657;-0.0046;
474013525159262;0.0470;0.0046;0.0375;
474013545156378;-0.0373;0.0156;0.0247;
474013565249762;-0.0385;0.0614;-0.0456;
474013585148647;-0.0251;0.0816;-0.0077;
474013605157647;0.0360;0.0162;0.0534;
474013625222955;0.0116;0.0181;0.0656;
474013645154801;-0.0806;0.0675;-0.0382;
474013665260185;-0.0409;0.0773;0.0082;
474013685157647;0.0140;0.0101;0.0345;
474013705264916;0.0122;0.0358;0.0186;
474013725256685;-0.1039;0.0547;0.0222;
474013747587801;0.0281;0.0388;0.0210;
474013765157031;0.0201;0.0058;0.0461;
474013785205839;-0.1032;0.0236;0.0210;
474013805206147;0.0311;0.0529;0.0125;
474013825320570;0.0825;0.0529;0.0314;
474013845170839;0.0195;0.0187;0.0705;
474013865177185;-0.0489;0.0321;0.0088;
474013885168531;0.0128;0.0498;0.0125;
474013905223839;0.0134;0.0223;0.0192;
474013925165685;0.0434;0.0132;0.0394;
474013945167224;0.0263;0.0413;0.0204;
474013965253570;0.0049;0.0455;0.0180;
474013985154031;0.0373;0.0205;0.0308;
474014005152416;-0.0391;-0.0198;0.0607;
474014025155723;0.0336;0.0578;-0.0150;
474014045161685;0.0855;0.0541;-0.0248;
474014065242493;0.0092;0.0034;0.0522;
474014085224262;-0.0587;0.0168;0.0736;
474014105201185;0.0495;0.0333;0.0009;
474014125213070;0.0122;0.0352;-0.0040;
474014145159300;-0.0697;-0.0052;0.0503;
474014165159608;-0.0525;0.0242;0.0424;
474014185159570;0.0366;0.0254;-0.0254;
474014205160993;-0.0312;0.0132;0.0448;
474014225165839;-0.1124;0.0138;-0.0022;
474014245152377;-0.0196;0.0547;-0.0248;
474014265159377;0.0702;0.0101;0.0430;
474014285248762;-0.0660;-0.0113;0.0516;
474014305279069;-0.1546;0.0407;-0.0217;
474014325159223;-0.0428;0.0358;-0.0022;
474014345160339;0.0800;-0.0058;0.0387;
474014365154992;-0.0342;0.0095;0.0345;
474014385244800;-0.0782;0.0303;-0.0223;
474014405219300;0.0232;0.0400;-0.0327;
474014425228454;-0.0269;0.0034;0.0626;
474014445234300;-0.0287;-0.0235;0.0229;
474014465255531;-0.0159;0.0565;-0.0010;
474014485279069;0.0293;0.0254;0.0216;
474014505277915;0.0861;-0.0015;0.0290;
474014525162146;-0.0257;-0.0119;0.0534;
474014545149415;-0.0672;0.0382;-0.0022;
474014565137646;0.0232;0.0462;-0.0321;
474014585204608;0.0293;-0.0216;0.0497;
474014605143608;-0.0422;-0.0186;0.0528;
474014625147915;0.0342;0.0578;-0.0394;
474014645225415;0.0531;0.0297;-0.0059;
474014665158185;0.0391;-0.0278;0.0968;
474014685182146;-0.0293;-0.0180;0.0467;
474014705170108;-0.0403;0.0627;-0.0773;
474014725176185;0.0085;-0.0107;0.0797;
474014745352185;0.0599;-0.0577;0.0558;
474014765216338;-0.0385;0.0394;-0.0401;
474014785161992;-0.0440;0.0688;-0.0413;
474014805143954;0.0250;-0.0357;0.0546;
474014825134800;-0.0257;-0.0259;0.0681;
474014845176069;-0.1100;0.0352;-0.0657;
474014865217184;0.0641;0.0504;-0.0504;
474014885230646;0.0269;-0.0192;0.0455;
474014905235531;-0.0171;-0.0296;0.0186;
474014925237954;-0.0257;0.0578;-0.0437;
474014945163531;-0.0220;0.0364;-0.0523;
474014965157184;0.1008;0.0144;0.0186;
474014985156646;-0.1289;0.0126;0.0076;
474015005158992;-0.0275;0.0321;-0.0425;
474015025149684;0.1619;0.0284;-0.0004;
474015045152030;0.0489;-0.0223;0.0222;
474015065159761;-0.1631;0.0205;0.0021;
474015085258300;-0.0000;0.0517;-0.0431;
474015105258684;0.1784;0.0284;-0.0187;
474015125150877;-0.0452;0.0040;0.0320;
474015145156453;-0.1485;0.0065;0.0113;
474015165184953;0.0776;0.0144;-0.0187;
474015185155107;0.0880;0.0144;0.0143;
474015205157646;-0.0067;0.0101;0.0082;
474015225159223;0.0153;0.0150;-0.0175;
474015245162684;0.0427;0.0242;-0.0034;
474015265231953;-0.0293;-0.0119;0.0491;
474015285160376;-0.0330;-0.0045;0.0125;
474015305152876;0.0507;0.0480;-0.0401;
474015325151492;0.0250;0.0254;0.0076;
474015345152992;-0.0880;-0.0076;0.0106;
474015365170453;0.0079;0.0272;0.0064;
474015385160761;0.0373;0.0187;-0.0095;
474015405154915;-0.0617;-0.0052;0.0222;
474015425149799;0.0043;0.0028;0.0216;
474015445156069;0.1124;0.0291;-0.0223;
474015465158146;0.0018;0.0278;-0.0193;
474015485279722;-0.0617;-0.0216;0.0241;
474015505279876;0.1038;0.0095;0.0137;
474015525151492;-0.0330;0.0174;-0.0065;
474015545154953;-0.0788;0.0046;-0.0034;
474015565232569;0.0482;0.0052;0.0180;
474015585239992;0.0146;-0.0015;0.0033;
474015605151799;-0.0299;0.0162;-0.0370;
474015625156953;0.0269;0.0058;0.0137;
474015645152107;0.0330;-0.0235;-0.0010;
474015665157492;-0.0177;0.0132;0.0015;
474015685163876;0.0580;0.0174;-0.0407;
474015705265222;0.0611;-0.0003;0.0161;
474015725167799;-0.0758;-0.0045;-0.0040;
474015745158491;0.0104;0.0236;-0.0205;
474015765166684;0.0305;0.0162;-0.0254;
474015785299222;0.0153;-0.0235;0.0308;
474015805237145;0.0073;0.0101;-0.0175;
474015825137491;-0.0782;0.0303;-0.0297;
474015845182530;0.0043;-0.0100;0.0290;
474015865222453;0.0464;-0.0296;0.0424;
474015885219799;-0.0025;-0.0003;-0.0168;
474015905296799;0.0012;0.0394;-0.0480;
474015925229722;0.0586;-0.0107;-0.0010;
474015945231107;0.0311;-0.0302;0.0467;
474015965155491;-0.0257;-0.0027;-0.0358;
474015985174530;-0.0293;0.0058;-0.0309;
474016005237914;0.0128;-0.0223;0.0210;
474016025152376;0.0342;-0.0076;0.0027;
474016045152376;-0.0519;0.0034;-0.0266;
474016065240722;-0.0153;0.0003;-0.0162;
474016085157376;-0.0373;-0.0149;-0.0022;
474016105154876;0.0055;-0.0107;-0.0052;
474016125240991;-0.0452;0.0046;-0.0236;
474016145155030;0.0880;0.0217;-0.0572;
474016165153376;0.0030;-0.0058;0.0155;
474016185292299;-0.0452;-0.0369;0.0039;
474016205236414;-0.0025;0.0217;-0.0394;
474016225148568;0.0122;-0.0058;0.0015;
474016245149876;-0.0263;-0.0168;-0.0156;
474016265157068;-0.0104;0.0229;-0.0523;
474016285154337;0.0043;-0.0003;-0.0138;
474016305155222;-0.0177;-0.0149;0.0161;
474016325158491;-0.0147;0.0034;-0.0089;
474016345148145;-0.0342;0.0254;-0.0187;
474016365151953;-0.0318;0.0083;-0.0248;
474016385151106;-0.0159;-0.0039;0.0326;
474016405170029;-0.0550;-0.0290;0.0241;
474016425316568;-0.0220;-0.0052;-0.0046;
474016445442645;0.0159;0.0119;0.0149;
474016465148337;-0.0452;-0.0064;0.0235;
474016485151029;0.0592;0.0016;0.0015;
474016505151452;-0.0018;-0.0070;-0.0034;
474016526041914;-0.0208;-0.0125;0.0161;
474016545184799;0.0030;-0.0168;0.0167;
474016565230299;-0.0086;-0.0162;-0.0113;
474016585258760;0.0440;0.0089;-0.0028;
474016605131837;0.0122;0.0266;-0.0401;
474016625141222;-0.0464;0.0016;-0.0156;
474016645213260;0.0030;-0.0216;0.0131;
474016665218029;-0.0025;-0.0045;0.0039;
474016685147491;-0.0336;0.0003;-0.0382;
474016705141452;-0.0025;0.0046;-0.0113;
474016725156952;0.0263;0.0089;-0.0138;
474016746458798;-0.0593;0.0022;0.0119;
474016765184529;-0.0330;0.0071;-0.0101;
474016785485222;0.0440;0.0168;-0.0059;
474016805151145;-0.0306;0.0046;-0.0016;
474016825129914;-0.0092;0.0181;-0.0199;
474016845177029;-0.0318;0.0303;-0.0248;
474016865152798;-0.0257;0.0211;-0.0297;
474016885144183;-0.0593;-0.0039;0.0308;
474016905217837;-0.0116;-0.0058;-0.0089;
474016925151414;-0.0153;0.0303;-0.0144;
474016945157452;0.0263;0.0199;-0.0248;
474016965221644;-0.0165;-0.0113;0.0094;
474016985185837;-0.0049;0.0065;-0.0095;
474017005239683;0.0647;0.0291;-0.0413;
474017025154491;-0.0251;0.0058;0.0100;
474017045150067;0.0030;-0.0210;0.0149;
474017065149529;0.0605;0.0443;-0.0309;
474017085159067;0.0043;0.0431;-0.0217;
474017105152298;-0.0452;-0.0143;0.0290;
474017125149337;0.0348;-0.0149;0.0552;
474017145147490;-0.0037;0.0278;-0.0352;
474017165150298;0.0079;0.0297;-0.0309;
474017185156490;0.0440;-0.0009;0.0497;
474017205160490;0.0079;-0.0064;0.0241;
474017225152414;-0.0098;0.0138;-0.0120;
474017245158260;0.0226;-0.0119;0.0143;
474017265142144;0.0464;-0.0216;0.0723;
474017285155606;0.0751;0.0065;-0.0223;
474017305223952;-0.0434;0.0419;-0.0254;
474017325145798;-0.0043;-0.0119;0.0113;
474017345143721;0.0617;-0.0375;0.0607;
474017365149029;-0.0159;-0.0045;-0.0095;
474017385148413;0.0024;0.0303;-0.0364;
474017405166106;0.0818;-0.0033;0.0235;
474017425145760;0.0061;-0.0168;0.0290;
474017445149798;-0.0470;0.0260;-0.0486;
474017465150144;0.0067;0.0028;-0.0040;
474017485151567;-0.0049;-0.0027;0.0394;
474017505239375;0.0385;0.0193;-0.0248;
474017525156990;0.0586;0.0535;-0.0413;
474017545154375;-0.0672;-0.0155;0.0241;
474017565157375;-0.0929;-0.0076;0.0113;
474017585155259;0.0177;0.0352;-0.0523;
474017605166259;0.0873;0.0065;0.0051;
474017625160452;0.0263;0.0003;0.0161;
474017645150836;-0.0794;0.0150;-0.0120;
474017665149836;0.1087;0.0181;-0.0321;
474017685158144;0.0880;-0.0003;0.0284;
474017705157452;-0.0941;-0.0155;-0.0193;
474017725157759;0.0385;0.0193;-0.0529;
474017745304029;0.0922;-0.0125;0.0186;
474017765221990;-0.0843;-0.0186;0.0125;
474017785147336;-0.0788;0.0217;-0.0297;
474017805146490;0.0928;0.0089;-0.0236;
474017825154375;0.0629;-0.0168;0.0546;
474017845135913;-0.0477;0.0107;-0.0095;
474017865160913;-0.0470;0.0468;-0.0449;
474017885151644;0.0385;-0.0039;0.0009;
474017905158644;-0.0122;-0.0351;0.0748;
474017925158875;-0.0843;0.0010;-0.0285;
474017945159759;-0.0244;0.0498;-0.0303;
474017965262990;0.0635;-0.0180;0.0546;
474017985246298;-0.0764;-0.0198;0.0577;
474018005253567;-0.0287;0.0388;-0.0498;
474018025155721;0.0427;0.0400;-0.0004;
474018045158413;0.0275;-0.0290;0.0778;
474018065167221;0.0146;-0.0131;0.0369;
474018085168605;-0.0361;0.0327;-0.0327;
474018105162644;0.0049;0.0065;0.0229;
474018125250374;0.0342;-0.0290;0.0473;
474018145151182;-0.0336;-0.0271;0.0424;
474018165160105;-0.0251;0.0034;-0.0199;
474018185258759;0.0635;0.0199;-0.0401;
474018205201567;-0.0825;0.0321;-0.0187;
474018225154567;-0.0574;0.0229;-0.0083;
474018245158220;0.1197;-0.0216;0.0363;
474018265147259;0.0544;0.0217;0.0149;
474018285152490;-0.0373;0.0260;-0.0449;
474018305174297;-0.0678;0.0138;0.0137;
474018325155836;0.1325;-0.0296;-0.0113;
474018345153567;-0.0403;0.0382;-0.0309;
474018365155374;-0.2144;0.0816;-0.1604;
474018385151643;0.1240;-0.0192;0.0864;
474018405172105;0.2529;-0.0858;0.0699;
474018425203528;-0.0923;0.0376;-0.0730;
474018445149182;-0.1436;0.0614;-0.0627;
474018465147990;0.1081;-0.0595;0.0607;
474018485151643;-0.0617;-0.0210;0.0033;
474018505165259;-0.1546;0.0639;-0.0895;
474018525264797;0.0134;0.0211;-0.0065;
474018545275413;0.1057;-0.0504;0.0681;
474018565248374;-0.1100;-0.0168;0.0253;
474018585141182;-0.1142;0.0394;-0.0749;
474018605147374;0.0599;0.0394;0.0039;
474018625141566;0.1264;-0.0052;0.0296;
474018645227951;-0.0770;0.0113;0.0210;
474018665155489;-0.1039;0.0297;0.0015;
474018685152182;0.0806;0.0284;-0.0040;
474018705151336;0.0537;-0.0235;0.0528;
474018725158682;-0.0232;0.0089;-0.0248;
474018745176682;-0.0031;0.0168;0.0064;
474018765867105;0.0849;-0.0180;0.0326;
474018785197720;-0.0061;-0.0015;0.0290;
474018805147797;-0.0525;0.0022;-0.0065;
474018825131297;0.0153;0.0156;-0.0327;
474018845130374;0.0330;0.0437;-0.0254;
474018865133412;-0.0269;-0.0064;0.0131;
474018885129758;0.0055;0.0034;0.0375;
474018905222066;-0.0098;0.0223;-0.0260;
474018925162758;-0.0226;0.0346;-0.0321;
474018945162182;0.0440;0.0260;0.0076;
474018965171066;-0.0312;0.0016;-0.0022;
474018985154797;-0.0385;0.0010;0.0412;
474019005149681;-0.0006;0.0065;-0.0144;
474019025225720;0.0250;0.0291;0.0357;
474019045231797;-0.0037;0.0236;-0.0126;
474019065160412;-0.1100;0.0541;-0.0083;
474019085148489;0.0232;0.0254;-0.0095;
474019105159951;-0.0226;0.0083;0.0326;
474019125153412;-0.0422;-0.0198;0.0290;
474019145255528;0.0275;-0.0125;0.0284;
474019165156528;0.0305;0.0193;-0.0223;
474019185158758;-0.0379;0.0022;-0.0040;
474019205180181;-0.0416;-0.0155;0.0210;
474019225160297;-0.0208;0.0162;0.0229;
474019245218412;0.0092;-0.0052;-0.0059;
474019265157220;-0.0556;0.0150;0.0106;
474019285149835;-0.0538;-0.0247;0.0198;
474019305160450;-0.0073;-0.0107;0.0009;
474019325314720;-0.0831;0.0297;-0.0083;
474019345151643;-0.0251;0.0022;0.0027;
474019365149027;0.0201;-0.0198;0.0351;
474019385158681;-0.0287;-0.0143;0.0009;
474019405165643;-0.0538;0.0205;-0.0541;
474019425176181;-0.0348;0.0193;0.0204;
474019445223450;-0.0287;0.0065;0.0259;
474019465152566;-0.0403;0.0339;-0.0566;
474019485158104;-0.0098;0.0400;-0.0181;
474019505251489;-0.0385;-0.0394;0.0528;
474019525262566;-0.1045;-0.0223;-0.0107;
474019545267412;-0.0874;0.0382;-0.0651;
474019565232412;0.1374;0.0071;-0.0004;
474019585333027;-0.0196;-0.0229;0.0332;
474019605267912;-0.0941;0.0028;-0.0370;
474019625156758;-0.0336;0.0162;-0.0370;
474019645234027;0.0702;-0.0125;0.0192;
474019665159912;-0.0073;0.0040;0.0143;
474019685186527;-0.0660;0.0260;-0.0358;
474019705236412;0.0476;-0.0284;0.0540;
474019725154642;0.0110;-0.0143;0.0174;
474019745226912;-0.0904;0.0217;-0.0333;
474019765154719;-0.0037;0.0003;-0.0022;
474019785255373;0.1533;-0.0100;0.0125;
474019805145027;-0.0287;-0.0021;0.0009;
474019825138412;-0.0978;0.0034;-0.0181;
474019845130296;0.0415;-0.0052;0.0119;
474019865186181;0.1246;-0.0406;0.0241;
474019885126719;-0.0061;0.0016;-0.0162;
474019905128142;-0.0147;0.0217;-0.0346;
474019925126565;0.1063;-0.0363;0.0210;
474019945130488;-0.0202;-0.0015;-0.0236;
474019965128219;-0.0580;0.0425;-0.0798;
474019985217719;0.1399;-0.0149;0.0106;
474020005176065;0.0537;-0.0473;0.0394;
474020025223719;-0.0831;-0.0192;0.0241;
474020045157296;-0.0092;0.0236;-0.0340;
474020065217296;0.0440;0.0028;-0.0242;
474020085157450;0.0452;-0.0180;0.0430;
474020105150065;-0.0635;-0.0015;-0.0217;
474020125153181;0.0324;0.0260;-0.0504;
474020145154950;0.0226;0.0058;0.0345;
474020165215565;-0.0281;-0.0363;0.0064;
474020185238758;-0.0226;0.0040;0.0015;
474020205230681;-0.0324;0.0346;-0.0425;
474020225153873;0.0183;-0.0039;-0.0083;
474020245321411;-0.0434;-0.0271;0.0235;
474020265228681;-0.0666;0.0150;-0.0352;
474020285143565;-0.0379;0.0358;-0.0419;
474020305228911;0.0812;-0.0198;0.0021;
474020325222834;0.0379;-0.0009;0.0015;
474020345155257;-0.1179;0.0437;-0.0596;
474020365158950;-0.0373;0.0107;-0.0095;
474020385151565;0.2285;-0.0058;-0.0101;
474020405162757;-0.0635;0.0291;-0.0101;
474020425223450;-0.2346;-0.0168;0.0033;
474020445152373;0.2517;-0.0100;0.0125;
474020465227680;0.0654;0.0071;-0.0364;
474020485152411;-0.2755;-0.0045;0.0247;
474020505161527;-0.0495;-0.0021;0.0253;
474020525150680;0.3879;0.0266;-0.0590;
474020545242950;0.1154;0.0003;0.0106;
474020565242027;-0.2938;-0.0235;0.0302;
474020585234911;-0.1717;-0.0009;0.0204;
474020605268450;0.2376;0.0315;-0.0388;
474020625210988;0.1790;0.0077;-0.0004;
474020645143411;-0.1124;0.0046;0.0161;
474020665185065;-0.1051;0.0028;-0.0071;
474020685232988;0.1246;0.0400;-0.0358;
474020705156180;-0.0397;0.0462;-0.0517;
474020725148142;-0.0477;-0.0100;0.0381;
474020745171873;0.0208;-0.0198;0.0064;
474020765149680;-0.0464;0.0364;-0.0315;
474020785143334;-0.1821;0.0217;-0.0621;
474020805139103;0.0049;-0.0223;0.0510;
474020825279334;0.1545;-0.0168;0.0436;
474020845136680;0.0397;0.0620;-0.0853;
474020865130949;-0.1112;0.0321;-0.0040;
474020885127911;-0.0556;-0.0534;0.0650;
474020905128949;0.0324;-0.0229;0.0461;
474020925127988;-0.0226;0.0382;-0.0663;
474020945188719;-0.0599;0.0065;0.0247;
474020965204026;0.0208;-0.0534;0.0277;
474020985319372;0.0146;-0.0100;0.0186;
474021005326295;-0.0330;0.0382;-0.0425;
474021025154218;0.0507;0.0248;-0.0059;
474021045296988;0.1099;-0.0131;0.0497;
474021065149565;0.0049;0.0065;-0.0358;
474021085149718;-0.0703;0.0339;-0.0309;
474021105152911;-0.1124;-0.0204;-0.0004;
474021125151257;0.0171;-0.0235;0.0125;
474021145161026;0.0782;0.0052;-0.0052;
474021165160103;0.0434;0.0260;-0.0223;
474021185152872;-0.0049;-0.0009;0.0253;
474021205170834;0.0287;0.0083;-0.0059;
474021225154488;0.0556;0.0187;-0.0340;
474021245281488;0.0012;0.0138;0.0216;
474021265152372;-0.0000;0.0236;-0.0278;
474021285221103;0.0269;0.0028;0.0015;
474021305152564;-0.0935;-0.0174;0.0143;
474021325154757;-0.0733;0.0010;0.0082;
474021345234526;0.0733;0.0052;-0.0150;
474021365235103;0.0959;0.0205;-0.0156;
474021385157103;-0.0135;-0.0021;0.0094;
474021405175795;-0.0086;-0.0070;0.0265;
474021425149026;0.0476;0.0150;0.0106;
474021445159949;0.0464;0.0119;0.0027;
474021465151872;-0.0183;0.0126;0.0045;
474021485236487;0.0611;0.0126;-0.0065;
474021505153449;-0.0043;-0.0076;0.0045;
474021525151372;-0.1271;0.0077;-0.0083;
474021545159180;-0.0336;0.0089;-0.0248;
474021565151949;0.1014;0.0107;-0.0077;
474021585246987;0.0629;-0.0021;0.0021;
474021605265141;-0.0813;0.0168;-0.0071;
474021625256449;-0.0080;0.0168;-0.0181;
474021645277833;0.0568;0.0058;-0.0285;
474021665250872;-0.0446;0.0028;-0.0132;
474021685158564;0.0281;0.0150;-0.0278;
474021705227987;0.0214;0.0089;-0.0010;
474021725149526;-0.1094;0.0126;0.0045;
474021748559756;-0.1155;0.0028;-0.0340;
474021765326718;0.0024;0.0077;-0.0022;
474021785153641;0.0067;0.0205;-0.0236;
474021805147718;-0.0281;0.0101;0.0045;
474021825148372;-0.0666;-0.0119;0.0284;
474021845138026;0.0397;0.0089;-0.0059;
474021865178372;0.0513;0.0193;-0.0168;
474021885175910;-0.0483;0.0126;0.0033;
474021905127679;-0.0990;-0.0155;0.0058;
474021925179833;-0.0067;-0.0100;-0.0052;
474021945137026;-0.0128;0.0028;-0.0028;
474021965136641;-0.0556;-0.0088;0.0155;
474021985153064;0.0067;0.0095;-0.0187;
474022005176564;0.0159;0.0132;-0.0187;
474022025221064;-0.0373;-0.0253;0.0308;
474022045209295;0.0006;0.0010;0.0070;
474022065150602;0.1044;0.0291;-0.0168;
474022085211641;0.0195;0.0150;0.0027;
474022105152064;-0.0690;-0.0137;0.0082;
474022125152641;-0.0959;-0.0107;0.0180;
474022145153564;0.0421;0.0217;-0.0175;
474022165160910;0.0354;0.0138;-0.0211;
474022185228833;-0.0422;0.0065;-0.0272;
474022205225871;-0.0183;0.0016;-0.0022;
474022225259410;0.0201;-0.0351;0.0320;
474022245154295;-0.0049;0.0229;-0.0101;
474022265292256;0.0507;0.0400;-0.0541;
474022285227025;0.0678;0.0217;0.0320;
474022305154833;0.0244;-0.0174;0.0106;
474022325156718;-0.0733;0.0119;0.0143;
474022345152910;-0.0507;0.0187;-0.0517;
474022365249987;0.0079;0.0193;0.0198;
474022385188987;0.0012;-0.0058;-0.0022;
474022405232179;-0.0128;0.0492;-0.0492;
474022425148564;-0.0049;0.0254;0.0198;
474022445217179;0.0037;0.0016;0.0259;
474022465154717;0.0092;0.0382;-0.0755;
474022485162179;0.0415;0.0181;0.0235;
474022505159371;0.0482;-0.0058;0.0076;
474022525153487;-0.0623;0.0211;0.0174;
474022545153525;-0.0654;0.0138;-0.0205;
474022565247410;0.0055;0.0113;0.0174;
474022585159410;0.0043;-0.0100;-0.0095;
474022605162602;-0.0391;0.0187;0.0088;
474022625144948;-0.0544;-0.0027;0.0070;
474022645137487;0.0342;-0.0009;-0.0162;
474022665153294;0.0134;0.0266;0.0070;
474022685155256;-0.0067;0.0022;-0.0034;
474022705163410;0.0971;0.0187;-0.0223;
474022725152986;-0.0660;0.0303;0.0149;
474022745207833;-0.1185;-0.0015;0.0058;
474022765373563;0.0287;0.0303;-0.0242;
474022785150640;0.0446;0.0174;-0.0132;
474022805140294;-0.0825;0.0022;-0.0040;
474022825143333;-0.0629;0.0034;-0.0120;
474022845228333;0.0208;-0.0052;-0.0175;
474022865148025;0.0452;0.0205;-0.0046;
474022885154140;0.0165;0.0010;0.0070;
474022905227833;0.0403;0.0162;0.0094;
474022925221409;0.0116;0.0260;0.0082;
474022945235256;-0.0690;-0.0192;0.0082;
474022965157602;0.0776;0.0223;-0.0040;
474022985275256;0.1093;0.0174;-0.0120;
474023005342525;-0.0098;0.0040;0.0210;
474023025223563;-0.0678;-0.0015;-0.0248;
474023045256179;-0.0159;-0.0021;0.0070;
474023065337332;0.0287;0.0077;-0.0052;
474023085160909;0.0397;-0.0021;-0.0052;
474023105248448;0.0397;0.0046;0.0277;
474023125147871;0.0183;-0.0052;-0.0254;
474023145156794;-0.0006;0.0174;0.0192;
474023165154986;-0.0574;0.0071;-0.0040;
474023185271371;0.1008;0.0174;-0.0107;
474023205171255;0.0776;0.0168;-0.0101;
474023225156717;-0.0110;-0.0125;0.0290;
474023245269986;-0.0263;-0.0143;0.0033;
474023265227717;-0.0000;0.0126;-0.0254;
474023285206255;0.0067;-0.0082;-0.0236;
474023305217140;-0.0238;-0.0388;0.0375;
474023325197025;0.0696;-0.0064;-0.0260;
474023345177255;0.0110;0.0211;-0.0266;
474023365173178;0.0122;-0.0259;0.0204;
474023385143563;0.0330;-0.0100;0.0106;
474023405235332;0.0305;0.0095;-0.0474;
474023425226678;-0.0147;-0.0174;0.0070;
474023445209640;-0.0489;-0.0180;0.0161;
474023465147755;0.0128;0.0126;-0.0022;
474023485147140;0.0134;0.0358;-0.0370;
474023505150140;-0.0825;0.0028;0.0009;
474023525155524;-0.0483;-0.0229;-0.0138;
474023545155794;-0.0733;-0.0070;0.0131;
474023565149063;-0.0495;-0.0033;-0.0413;
474023585152947;0.0250;0.0260;-0.0449;
474023605151832;0.0385;-0.0107;0.0412;
474023625222524;0.0427;-0.0039;-0.0364;
474023645143794;-0.0599;0.0297;-0.0370;
474023665145947;-0.0825;-0.0241;-0.0162;
474023685145794;0.0586;-0.0119;-0.0486;
474023705234755;0.0024;0.0144;-0.0034;
474023725153101;0.0360;-0.0278;-0.0333;
474023745156870;-0.0654;0.0022;0.0180;
474023765146293;-0.0947;-0.0125;-0.0431;
474023785149678;0.0446;-0.0021;-0.0462;
474023805149909;0.0134;-0.0107;0.0027;
474023826059332;0.0067;0.0181;-0.0388;
474023845182370;-0.0049;0.0089;-0.0260;
474023865184640;-0.0244;-0.0278;0.0143;
474023885220024;0.0134;0.0119;-0.0272;
474023905223524;0.0159;0.0199;-0.0370;
474023925149639;0.0281;-0.0033;-0.0205;
474023945206255;-0.0055;-0.0107;0.0210;
474023965135601;0.0134;0.0132;-0.0266;
474023985134332;-0.0244;0.0284;-0.0309;
474024005243755;-0.0715;-0.0149;-0.0059;
474024025147909;0.0605;-0.0070;-0.0083;
474024045144986;-0.0110;-0.0119;-0.0150;
474024065148216;-0.1075;-0.0137;0.0106;
474024085238062;0.0800;-0.0021;0.0039;
474024105151024;0.1417;-0.0021;-0.0010;
474024125148678;-0.0299;0.0034;0.0314;
474024145147101;-0.0397;0.0199;-0.0272;
474024165145985;-0.0073;0.0217;0.0113;
474024185155216;0.0342;-0.0174;0.0320;
474024205153370;0.0012;0.0040;0.0277;
474024225150178;0.0464;0.0535;-0.0480;
474024245156293;-0.0684;-0.0198;0.0357;
474024265148908;-0.0923;-0.0369;0.0534;
474024285149678;0.0201;0.0254;-0.0364;
474024305159408;0.0495;0.0089;-0.0181;
474024325152408;0.0061;0.0052;0.0497;
474024345147101;-0.0306;-0.0192;-0.0040;
474024365148793;0.0366;0.0352;0.0021;
474024385158947;0.0818;0.0095;0.0064;
474024405155524;0.0073;0.0028;0.0100;
474024425224139;0.0776;0.0278;0.0045;
474024445220139;0.0336;0.0046;-0.0175;
474024465150178;-0.0373;-0.0125;0.0296;
474024485159908;0.0153;0.0144;-0.0052;
474024505242908;0.0708;0.0113;-0.0266;
474024525163754;0.0825;-0.0003;0.0424;
474024545143331;-0.0513;-0.0265;0.0180;
474024565144601;-0.0550;0.0089;-0.0016;
474024585150024;0.0397;0.0284;-0.0303;
474024605156293;0.0140;-0.0180;0.0210;
474024625163177;0.0079;-0.0003;0.0387;
474024645177447;0.0293;0.0205;-0.0358;
474024665149562;-0.0477;0.0058;0.0351;
474024685271831;0.0311;0.0077;0.0003;
474024705161024;0.0043;0.0040;-0.0052;
474024725224677;0.0464;0.0291;-0.0089;
474024745257870;-0.0031;0.0010;0.0204;
474024765222177;-0.0513;-0.0113;0.0406;
474024785150062;0.0079;0.0284;-0.0333;
474024805154254;-0.0135;0.0193;-0.0059;
474024825131485;-0.0330;0.0144;0.0070;
474024845227023;-0.0434;-0.0113;0.0039;
474024865217485;-0.0025;-0.0107;0.0180;
474024885152293;0.0153;0.0022;-0.0156;
474024905226523;0.0189;0.0193;0.0021;
474024925237716;0.0403;0.0346;-0.0052;
474024945223985;-0.0788;-0.0009;-0.0309;
474024965142831;-0.0709;-0.0064;0.0113;
474024985153523;0.1099;0.0174;-0.0034;
474025005236908;0.0513;0.0022;-0.0095;
474025025175023;-0.0000;0.0236;0.0070;
474025045229100;-0.0092;-0.0223;-0.0138;
474025065226254;-0.0049;-0.0052;0.0155;
474025085150908;0.0281;0.0156;-0.0352;
474025105149139;0.0092;-0.0045;-0.0223;
474025125269331;0.0165;0.0107;-0.0034;
474025145222831;0.0116;-0.0131;-0.0175;
474025165149792;-0.0709;-0.0064;-0.0168;
474025185267831;0.0055;0.0156;-0.0187;
474025205154677;0.0299;0.0052;-0.0211;
474025225230408;-0.0012;-0.0009;0.0143;
474025245149215;-0.0452;-0.0351;-0.0107;
474025265225985;0.0305;0.0016;0.0082;
474025285149792;0.0727;0.0083;0.0045;
474025305226485;0.0403;-0.0082;0.0137;
474025325154985;0.0281;0.0174;0.0045;
474025345225023;-0.0122;0.0046;-0.0278;
474025365146331;-0.0470;-0.0039;0.0369;
474025385151831;0.0140;-0.0058;-0.0150;
474025405157023;0.0110;0.0156;-0.0333;
474025425146100;-0.0147;0.0107;-0.0010;
474025445156715;-0.0507;-0.0058;0.0088;
474025465224908;-0.0403;-0.0180;0.0265;
474025485230485;0.0275;0.0052;-0.0407;
474025505232331;-0.0135;0.0254;-0.0120;
474025525232446;0.0122;0.0065;-0.0425;
474025545157677;-0.0440;-0.0241;0.0320;
474025565219792;-0.0306;0.0034;-0.0462;
474025585147715;0.0537;0.0321;-0.0413;
474025605183177;0.0513;-0.0345;0.0412;
474025625159908;0.0501;-0.0082;0.0247;
474025645263100;-0.0226;0.0370;-0.0730;
474025665225138;0.0134;-0.0443;0.0369;
474025685242369;0.1154;-0.0155;0.0137;
474025705284292;0.0366;0.0376;-0.0523;
474025725236292;0.0379;0.0254;-0.0052;
474025745144215;0.0092;-0.0430;0.0558;
474025765162869;-0.0409;-0.0125;0.0174;
474025785199523;0.0458;0.0297;-0.0425;
474025805171600;0.0275;-0.0113;0.0229;
474025825173830;0.0501;-0.0326;0.0394;
474025845152369;-0.0342;-0.0253;0.0082;
474025865184638;0.0110;-0.0045;0.0045;
474025885135946;0.1008;-0.0131;0.0039;
474025905183023;0.0660;-0.0143;0.0369;
474025925233100;-0.0238;0.0046;-0.0095;
474025945245253;-0.0507;-0.0009;-0.0101;
474025965151292;0.0165;-0.0326;0.0198;
474025985217792;0.0818;-0.0009;-0.0046;
474026005224330;0.0024;0.0248;0.0039;
474026025227676;0.0165;0.0003;-0.0309;
474026045243984;-0.0605;-0.0186;0.0387;
474026065234099;-0.0263;-0.0113;-0.0016;
474026085232253;0.0195;0.0284;-0.0529;
474026105186215;0.0006;0.0040;0.0198;
474026125241369;-0.0177;-0.0223;0.0058;
474026145231407;-0.1069;-0.0174;-0.0010;
474026165152099;0.0244;0.0272;-0.0059;
474026185149292;-0.0110;-0.0076;-0.0144;
474026205224330;-0.0751;-0.0039;0.0387;
474026225158984;-0.0379;-0.0247;-0.0376;
474026245169176;-0.0336;-0.0027;0.0296;
474026265155292;-0.0428;-0.0143;-0.0071;
474026285156484;0.0702;-0.0131;-0.0095;
474026305186753;0.0153;0.0095;0.0320;
474026325154907;-0.0067;-0.0131;-0.0431;
474026345154407;-0.0501;-0.0009;0.0485;
474026365149176;0.0421;-0.0223;-0.0010;
474026385155715;0.0318;0.0150;0.0015;
474026405155907;-0.0208;-0.0100;0.0296;
474026425166176;0.0250;-0.0357;-0.0016;
474026445147522;0.0085;-0.0021;0.0119;
474026465147484;0.0531;0.0144;0.0009;
474026485158368;0.0403;-0.0198;0.0064;
474026505274676;0.0250;0.0254;-0.0162;
474026525156368;-0.0538;-0.0070;-0.0113;
474026545255291;-0.0189;-0.0137;0.0186;
474026565148022;0.0519;0.0236;-0.0168;
474026585147253;0.0415;-0.0284;-0.0419;
474026605228022;-0.0342;-0.0039;0.0332;
474026625147022;0.0073;-0.0131;-0.0541;
474026645152945;0.0360;0.0083;0.0204;
474026665148214;-0.0306;0.0046;-0.0089;
474026685150714;-0.0098;-0.0204;-0.0315;
474026705149099;0.0843;0.0010;-0.0352;
474026725148868;-0.0263;-0.0162;0.0113;
474026748390368;-0.0978;-0.0455;-0.0046;
474026765177330;0.0739;0.0260;-0.0205;
474026785167330;0.0825;-0.0052;-0.0498;
474026805152599;-0.0037;-0.0253;0.0216;
474026825136868;-0.1155;-0.0149;0.0070;
474026845133907;0.0311;0.0003;-0.0559;
474026865224060;0.0739;0.0022;-0.0205;
474026885150291;-0.0464;-0.0443;0.0332;
474026905156176;0.0208;0.0193;-0.0908;
474026925158060;-0.0196;-0.0003;0.0076;
474026945245676;-0.0299;-0.0540;0.0290;
474026965234868;0.0128;-0.0198;-0.0010;
474026985148176;0.0470;0.0138;-0.0156;
474027005224983;0.0018;-0.0015;-0.0126;
474027025151906;-0.0758;-0.0253;0.0119;
474027045229791;-0.0837;-0.0113;-0.0217;
474027065227022;0.1087;-0.0162;-0.0120;
474027085227291;0.0379;-0.0247;0.0308;
474027105319522;-0.0269;-0.0131;-0.0071;
474027125157099;-0.0495;-0.0076;-0.0034;
474027145157714;0.0342;-0.0155;-0.0138;
474027165152522;-0.0141;-0.0168;0.0070;
474027185157368;-0.0416;-0.0204;0.0100;
474027205146791;0.0391;0.0016;-0.0468;
474027225154137;-0.0037;0.0010;0.0143;
474027245152829;0.0415;0.0071;-0.0168;
474027265156445;0.0092;-0.0033;-0.0223;
474027285150445;0.0305;-0.0088;0.0039;
474027305149406;-0.0116;-0.0058;-0.0132;
474027325141906;-0.0000;0.0040;-0.0010;
474027345139522;0.0055;0.0040;-0.0297;
474027365144522;-0.0006;-0.0003;0.0015;
474027385139483;-0.0110;-0.0162;-0.0004;
474027405143252;-0.0635;-0.0039;-0.0150;
474027425147868;0.0043;-0.0033;0.0039;
474027445178906;0.1008;0.0083;-0.0303;
474027465148022;-0.0477;-0.0021;0.0198;
474027485159329;-0.0403;-0.0198;-0.0248;
474027505247598;0.0275;0.0101;-0.0187;
474027525159060;-0.0067;-0.0174;-0.0126;
474027545245675;0.0183;-0.0125;0.0070;
474027565158252;0.0189;-0.0058;-0.0205;
474027585242445;0.0427;0.0046;-0.0242;
474027605146868;-0.0703;0.0028;-0.0211;
474027625150021;-0.0703;-0.0082;0.0015;
474027645151021;0.0880;0.0211;-0.0242;
474027665236406;0.0110;0.0022;0.0125;
474027685148560;-0.0464;-0.0003;-0.0309;
474027705150175;0.0134;-0.0058;0.0100;
474027725152714;0.0305;-0.0009;-0.0272;
474027745159137;-0.0012;0.0065;-0.0242;
474027765720329;0.0293;-0.0088;0.0204;
474027785631752;0.0476;0.0138;-0.0223;
474027805205367;-0.0562;0.0223;-0.0028;
474027825137983;-0.0403;-0.0015;-0.0095;
474027845130521;0.0165;0.0040;-0.0052;
474027865128329;0.0110;0.0095;0.0076;
474027885128175;-0.0263;0.0010;-0.0113;
474027905178906;0.0043;-0.0088;0.0137;
474027925131252;0.0794;0.0132;0.0149;
474027945180252;-0.0135;-0.0039;-0.0162;
474027965225714;-0.0373;0.0119;-0.0077;
474027985148098;0.0037;-0.0039;-0.0199;
474028005147560;0.0165;-0.0223;0.0510;
474028025221521;0.0305;0.0236;-0.0266;
474028045230675;0.0146;-0.0003;-0.0199;
474028065149560;0.0397;-0.0461;0.0668;
474028085224560;-0.0238;-0.0168;0.0174;
474028105225098;-0.0446;0.0321;-0.0187;
474028125149560;0.0806;0.0431;-0.0425;
474028145158367;-0.0312;-0.0021;0.0681;
474028165156521;0.0043;-0.0100;-0.0059;
474028185153290;0.0122;0.0065;0.0271;
474028205217406;-0.0391;-0.0259;0.0326;
474028225145944;0.0684;0.0144;-0.0052;
474028245145059;0.0177;0.0468;-0.0071;
474028265144213;0.0256;-0.0137;0.0155;
474028285145290;-0.0678;-0.0271;0.0675;
474028305145290;0.0073;-0.0162;-0.0175;
474028325145636;0.0935;0.0681;-0.0040;
474028345163598;0.0183;-0.0168;0.0229;
474028365146521;0.0055;-0.0210;0.0558;
474028385157675;-0.0330;0.0010;-0.0126;
474028405189790;0.0256;0.0040;-0.0052;
474028425152405;0.0311;0.0107;0.0094;
474028445142829;-0.0177;-0.0076;0.0039;
474028465161559;0.0146;0.0028;-0.0107;
474028485247021;-0.0568;0.0046;0.0290;
474028505151944;-0.0745;-0.0113;-0.0162;
474028525270367;0.0177;0.0095;-0.0132;
474028545177752;0.0195;0.0132;0.0009;
474028565266290;-0.0281;0.0034;-0.0095;
474028585256175;-0.1063;-0.0070;0.0216;
474028605149405;0.0928;-0.0137;0.0009;
474028625158944;0.0727;0.0236;-0.0199;
474028645308405;-0.0507;0.0010;0.0204;
474028665250751;-0.0067;-0.0039;-0.0315;
474028685252213;-0.0348;-0.0027;0.0351;
474028705153059;0.0391;0.0003;-0.0034;
474028725159290;-0.0562;0.0083;-0.0211;
474028745185944;-0.0165;0.0089;-0.0083;
474028765252559;0.0250;-0.0094;-0.0071;
474028785158482;0.0037;-0.0033;0.0204;
474028805166367;-0.0422;0.0052;0.0009;
474028825187828;0.0421;0.0095;0.0015;
474028845179136;0.0348;0.0083;0.0137;
474028865204713;-0.0764;-0.0088;-0.0181;
474028885206828;-0.1423;0.0046;0.0345;
474028905147405;0.1716;-0.0039;-0.0046;
474028925226367;-0.0061;0.0034;0.0137;
474028945242174;-0.0984;0.0101;-0.0083;
474028965257059;0.0324;-0.0082;0.0064;
474028985250944;0.0208;-0.0223;0.0296;
474029005147290;-0.0043;-0.0113;0.0058;
474029025231251;0.0098;0.0229;-0.0187;
474029045227982;0.0348;-0.0064;-0.0113;
474029065314213;-0.0226;-0.0192;0.0174;
474029085162367;-0.0202;-0.0290;0.0198;
474029105229174;0.1020;0.0101;-0.0278;
474029125343790;0.0415;-0.0076;0.0369;
474029145229290;-0.0538;-0.0064;-0.0584;
474029165247251;0.0110;0.0010;0.0143;
474029185227020;0.0140;-0.0650;0.0229;
474029205223443;0.0030;-0.0003;-0.0285;
474029225228174;0.0330;0.0150;-0.0394;
474029245219751;0.0269;-0.0314;0.0180;
474029265236136;-0.0648;-0.0198;0.0308;
474029285223020;0.0287;-0.0070;-0.0358;
474029305147366;-0.0000;-0.0039;-0.0248;
474029325139713;-0.0513;-0.0186;0.0265;
474029345149982;0.0146;-0.0198;-0.0120;
474029365229674;0.0092;0.0052;-0.0022;
474029385152020;-0.0513;0.0187;-0.0572;
474029405221097;0.0354;-0.0186;-0.0083;
474029425222982;0.0336;-0.0125;0.0088;
474029445157712;-0.1026;-0.0198;-0.0175;
474029465229405;-0.0697;-0.0082;-0.0278;
474029485158174;0.1112;0.0113;-0.0236;
474029505155789;-0.0061;-0.0033;-0.0187;
474029525155289;-0.0733;-0.0082;-0.0028;
474029545151097;-0.0025;-0.0125;-0.0333;
474029565238674;0.0067;-0.0149;0.0161;
474029585181905;0.0214;-0.0039;-0.0004;
474029605145982;-0.0312;-0.0009;-0.0205;
474029625218058;0.0049;-0.0174;-0.0388;
474029645144828;-0.0587;-0.0162;0.0003;
474029665207058;-0.0367;-0.0223;0.0204;
474029685151982;0.0330;-0.0137;-0.0266;
474029705134097;0.0354;0.0077;-0.0065;
474029725127674;-0.0159;0.0010;-0.0101;
474029745179481;-0.0489;-0.0131;0.0113;
474029765150674;0.0153;-0.0119;-0.0065;
474029785154558;0.0293;-0.0033;-0.0022;
474029805213135;-0.0232;-0.0100;0.0418;
474029825132251;-0.0324;0.0028;-0.0223;
474029845130135;-0.0220;0.0138;-0.0101;
474029865140520;-0.0226;-0.0271;0.0308;
474029885145212;0.0287;0.0058;0.0192;
474029905141712;-0.0092;0.0052;0.0155;
474029925250597;0.0208;-0.0143;0.0210;
474029945165827;0.0061;-0.0131;0.0174;
474029965186866;-0.0226;0.0058;-0.0089;
474029985266751;0.0287;0.0028;-0.0150;
474030005147443;0.0226;-0.0076;0.0302;
474030025248404;-0.0110;0.0101;-0.0107;
474030045147520;-0.0611;0.0101;0.0039;
474030065160635;0.0550;-0.0162;0.0106;
474030085160789;0.0513;-0.0058;-0.0004;
474030105152558;-0.0348;0.0156;-0.0101;
474030125153097;-0.0367;0.0083;-0.0187;
474030145229327;0.0134;-0.0223;0.0259;
474030165153135;-0.0422;0.0107;-0.0077;
474030185157289;-0.0080;-0.0131;-0.0297;
474030205155173;0.0544;-0.0247;0.0375;
474030225150520;0.0067;-0.0143;-0.0236;
474030245232020;-0.0813;0.0205;-0.0168;
474030265155596;0.0171;0.0028;-0.0291;
474030285243789;0.0208;-0.0308;0.0351;
474030305153250;-0.0141;-0.0143;0.0051;
474030325158212;-0.0373;0.0126;-0.0187;
474030345153173;0.0220;-0.0070;0.0039;
474030365156827;0.0311;-0.0131;0.0247;
474030385159789;-0.0605;0.0168;-0.0199;
474030405148289;-0.0397;-0.0033;0.0094;
474030425150943;-0.0104;-0.0137;-0.0010;
474030445153173;-0.0025;-0.0162;0.0216;
474030465220443;-0.0464;0.0101;-0.0004;
474030485258250;0.0495;0.0022;-0.0138;
474030505150173;-0.0049;-0.0326;0.0357;
474030525246519;-0.0110;-0.0229;0.0076;
474030545159289;-0.0580;0.0156;-0.0028;
474030565222519;0.0531;-0.0076;0.0027;
474030585171250;0.0030;-0.0259;0.0400;
474030605226135;-0.0464;-0.0339;0.0180;
474030625228250;-0.0116;0.0193;-0.0321;
474030645171058;0.0061;-0.0259;0.0583;
474030665232135;0.0348;-0.0039;0.0149;
474030685149673;-0.0055;0.0254;0.0100;
474030705218942;-0.0226;-0.0107;0.0051;
474030725147327;-0.0159;-0.0314;0.0479;
474030747606596;-0.0238;-0.0094;0.0326;
474030765151558;0.0513;0.0205;-0.0504;
474030785484942;-0.0080;0.0089;0.0149;
474030805138519;-0.0263;-0.0388;0.0229;
474030825152442;-0.0434;-0.0381;0.0167;
474030845182750;0.0256;-0.0033;-0.0254;
474030865178904;0.0464;0.0107;-0.0046;
474030885178481;0.0116;-0.0308;0.0070;
474030905175558;0.0373;0.0046;-0.0065;
474030925232288;-0.0208;0.0156;-0.0602;
474030945235019;-0.0238;-0.0039;-0.0101;
474030965251211;0.0073;-0.0088;-0.0095;
474030985263365;0.0250;-0.0058;-0.0162;
474031005151827;0.0024;0.0058;-0.0297;
474031025214711;-0.1014;-0.0168;-0.0272;
474031045148557;-0.0061;-0.0137;-0.0107;
474031065149057;0.0892;0.0223;-0.0523;
474031085146673;-0.0110;-0.0198;-0.0272;
474031105149942;-0.0434;-0.0388;0.0015;
474031125151057;-0.0165;-0.0241;-0.0358;
474031145153365;0.0256;-0.0149;-0.0498;
474031165144596;0.0098;-0.0113;-0.0016;
474031185152519;-0.0196;-0.0143;-0.0059;
474031205155827;0.0006;0.0107;-0.0523;
474031225226519;-0.0165;-0.0186;-0.0138;
474031245150634;-0.0721;-0.0284;0.0021;
474031265146557;-0.0348;-0.0009;-0.0608;
474031285156057;-0.0061;-0.0253;0.0186;
474031305150211;-0.0000;-0.0455;0.0009;
474031325152711;-0.0373;-0.0125;-0.0272;
474031345222442;0.0079;0.0162;-0.0437;
474031365151673;-0.0104;-0.0131;0.0009;
474031385224403;-0.0092;-0.0259;-0.0285;
474031405154480;0.0140;-0.0064;0.0198;
474031425174634;-0.0092;-0.0302;-0.0095;
474031445142865;-0.0122;-0.0351;0.0357;
474031465159019;0.0281;-0.0186;-0.0236;
474031485217749;0.0360;0.0162;0.0021;
474031505152134;0.0220;-0.0174;-0.0199;
474031525155019;-0.0525;-0.0320;0.0076;
474031545217711;0.0232;-0.0210;0.0351;
474031565157365;0.0812;-0.0168;-0.0138;
474031585151788;0.0153;-0.0039;0.0045;
474031605145903;-0.0654;-0.0088;0.0119;
474031625209557;0.0281;-0.0009;-0.0089;
474031645139711;0.0605;-0.0424;0.0406;
474031665225172;-0.0141;-0.0271;-0.0144;
474031685148903;0.0788;0.0174;-0.0113;
474031705216672;0.0373;-0.0064;0.0100;
474031725148442;-0.0251;-0.0375;0.0058;
474031750215480;0.0018;-0.0149;0.0027;
474031785147788;0.0250;-0.0119;0.0204;
474031805211518;-0.0874;0.0046;-0.0248;
474031825186518;-0.0403;-0.0143;-0.0004;
474031845195403;0.0018;-0.0381;0.0558;
474031865183788;0.0092;-0.0082;-0.0162;
474031885177172;0.0189;-0.0180;0.0198;
474031905131480;0.0427;-0.0155;0.0149;
474031925152326;0.0049;-0.0076;-0.0107;
474031945219134;-0.0422;-0.0064;0.0174;
474031965231365;0.0348;-0.0223;0.0271;
474031985150249;0.0898;-0.0400;0.0583;
474032005228326;-0.0574;-0.0143;-0.0156;
474032025222634;-0.0574;0.0187;-0.0077;
474032045152980;0.0770;-0.0284;-0.0016;
474032065156941;0.0641;-0.0070;0.0345;
474032085219826;-0.0697;-0.0155;-0.0272;
474032105226441;-0.0855;0.0101;0.0003;
474032125147095;0.0116;-0.0296;0.0638;
474032145145211;-0.0232;-0.0528;0.0100;
474032165221518;-0.0391;0.0065;-0.0175;
474032185150018;0.0947;-0.0119;-0.0266;
474032205149018;-0.0018;-0.0271;0.0284;
474032225154826;-0.0843;-0.0064;-0.0181;
474032245221134;0.0055;-0.0052;-0.0028;
474032265149172;0.0947;-0.0259;0.0210;
474032285221672;-0.0263;-0.0302;0.0235;
474032305217057;-0.0733;0.0126;-0.0162;
474032325153595;0.0391;0.0040;-0.0388;
474032345154480;0.0208;-0.0143;0.0339;
474032365231749;-0.0550;0.0034;-0.0089;
474032385159595;0.0733;-0.0497;0.0192;
474032405153749;0.0684;-0.0168;-0.0193;
474032425249480;-0.0043;-0.0094;-0.0217;
474032445148056;0.0415;-0.0192;-0.0113;
474032465234133;0.0079;-0.0320;0.0216;
474032485331210;-0.0409;-0.0265;0.0015;
474032505231018;-0.0855;0.0468;-0.0596;
474032525259249;-0.0483;-0.0290;-0.0065;
474032545142903;0.0177;-0.0497;0.0479;
474032565152826;-0.0159;0.0168;-0.0364;
474032585324749;0.0232;0.0266;-0.0272;
474032605224095;-0.0025;-0.0210;0.0351;
474032625265941;-0.0116;-0.0449;-0.0278;
474032645349402;0.0776;0.0339;-0.0071;
474032665159364;0.0495;-0.0235;-0.0217;
474032685149056;-0.0214;-0.0485;0.0656;
474032705147326;-0.0519;0.0236;-0.0449;
474032725148825;0.0043;0.0119;-0.0248;
474032748476825;-0.0043;-0.0400;0.0436;
474032765500095;-0.0599;-0.0449;0.0198;
474032785155249;-0.0141;-0.0168;-0.0211;
474032805146018;0.0128;-0.0125;-0.0022;
474032825140249;0.0281;-0.0308;0.0113;
474032845132710;0.0293;-0.0290;0.0137;
474032865180133;-0.0147;-0.0009;-0.0321;
474032885186056;-0.0122;-0.0259;0.0265;
474032905176325;-0.0165;-0.0284;-0.0168;
474032925176672;-0.0141;-0.0021;0.0003;
474032945233787;0.0556;-0.0039;-0.0010;
474032965219095;0.0690;-0.0210;-0.0034;
474032985222171;-0.0147;-0.0198;-0.0010;
474033005154210;-0.0147;0.0089;-0.0462;
474033025301018;0.0702;-0.0131;-0.0016;
474033045148787;0.0244;-0.0162;-0.0022;
474033065153864;-0.0611;-0.0076;-0.0132;
474033085149056;-0.0342;-0.0198;-0.0205;
474033105148902;0.0385;0.0016;-0.0285;
474033125146594;-0.0128;0.0083;0.0064;
474033145146979;-0.0128;-0.0070;-0.0321;
474033165148171;0.0037;-0.0039;0.0015;
474033185152094;-0.0361;-0.0192;-0.0034;
474033205157671;-0.0269;0.0046;-0.0388;
474033225234633;-0.0269;-0.0052;-0.0071;
474033245149517;0.0996;-0.0064;-0.0205;
474033265266787;0.0006;-0.0039;0.0284;
474033285150248;0.0201;-0.0394;-0.0046;
474033305221017;0.0195;0.0071;-0.0144;
474033325153864;0.0208;-0.0125;-0.0065;
474033345152479;0.0256;-0.0058;-0.0022;
474033365189210;0.0098;-0.0198;0.0216;
474033385158017;-0.0318;-0.0149;-0.0187;
474033405241440;0.0427;-0.0009;-0.0120;
474033425163594;0.0635;-0.0192;0.0400;
474033445239787;-0.0416;-0.0131;-0.0040;
474033465153287;0.0006;0.0046;-0.0065;
474033485148094;-0.0043;-0.0094;-0.0089;
474033505153940;-0.0703;0.0016;-0.0168;
474033525165786;-0.0263;-0.0290;0.0186;
474033545156210;0.0519;-0.0094;-0.0004;
474033565162286;0.0586;-0.0082;0.0113;
474033585173863;-0.0202;-0.0088;0.0070;
474033605247479;-0.0171;-0.0125;-0.0162;
474033625163940;0.0342;-0.0088;-0.0266;
474033645165171;-0.0593;-0.0326;0.0167;
474033665170094;0.0061;-0.0198;0.0015;
474033685158633;-0.0306;0.0040;-0.0052;
474033705151825;0.0391;-0.0149;-0.0321;
474033725154094;-0.0153;-0.0015;0.0143;
474033745239479;0.0049;-0.0216;-0.0181;
474033765169094;0.0073;-0.0143;0.0131;
474033785145171;0.0122;-0.0259;-0.0211;
474033805253055;-0.0861;0.0156;-0.0175;
474033825154094;-0.0379;-0.0192;-0.0034;
474033845129517;0.0275;-0.0155;-0.0138;
474033865129825;-0.0055;0.0058;0.0174;
474033885161017;-0.0758;0.0083;-0.0492;
474033905146940;0.0373;-0.0009;-0.0004;
474033925182748;0.0947;-0.0076;0.0296;
474033945148017;-0.0751;-0.0271;-0.0010;
474033965155440;-0.0623;-0.0174;-0.0144;
474033985175055;0.0140;-0.0021;-0.0132;
474034005154671;0.0299;-0.0253;-0.0254;
474034025154555;-0.0306;-0.0119;0.0229;
474034045274978;0.0385;-0.0094;-0.0223;
474034065168594;0.0452;-0.0131;-0.0187;
474034085235171;-0.0642;-0.0155;0.0210;
474034105140594;-0.0697;-0.0491;0.0058;
474034125140132;0.0733;-0.0168;-0.0535;
474034145138940;-0.1039;0.0199;0.0357;
474034165146748;-0.0000;-0.0363;-0.0223;
474034185142709;0.0586;0.0162;0.0119;
474034205144517;0.0342;-0.0162;-0.0107;
474034225182363;-0.0238;-0.0247;0.0387;
474034245155978;0.0715;0.0046;0.0082;
474034265150671;0.0134;-0.0070;-0.0217;
474034285170094;-0.0422;-0.0113;0.0253;
474034305146401;-0.0153;-0.0241;-0.0016;
474034325232209;0.0134;0.0071;0.0021;
474034345163786;0.0171;-0.0107;-0.0223;
474034365151017;-0.0153;-0.0363;0.0167;
474034385168978;-0.0165;0.0144;-0.0242;
474034405140094;0.0391;-0.0070;-0.0113;
474034425127632;-0.0116;-0.0278;0.0051;
474034445133555;-0.0037;-0.0210;0.0076;
474034465132901;-0.0318;0.0040;-0.0333;
474034485140247;0.0171;-0.0003;-0.0346;
474034505133401;0.0470;-0.0375;0.0375;
474034525128593;-0.0153;-0.0198;-0.0254;
474034545130670;0.0336;0.0223;-0.0401;
474034565132670;0.0305;-0.0100;-0.0095;
474034585135863;0.0012;-0.0235;0.0210;
474034605231209;-0.0012;-0.0247;-0.0040;
474034625150401;0.0061;0.0187;-0.0541;
474034645270093;-0.0275;-0.0058;0.0155;
474034665269401;-0.0556;-0.0125;0.0003;
474034685169170;0.0238;0.0113;-0.0352;
474034705175670;0.0476;0.0034;0.0045;
474034725148439;-0.0562;-0.0088;0.0082;
474034747277016;-0.0336;-0.0259;-0.0303;
474034765194516;0.0635;-0.0149;0.0058;
474034785207324;0.0085;-0.0039;-0.0266;
474034805147093;-0.0464;-0.0094;-0.0028;
474034825141439;0.0299;-0.0247;-0.0010;
474034845139016;0.0599;-0.0174;-0.0095;
474034865152362;-0.0519;0.0095;-0.0022;
474034885165401;0.0360;-0.0333;0.0033;
474034905152939;0.0440;-0.0345;-0.0046;
474034925148478;-0.0495;-0.0015;-0.0193;
474034945251209;-0.0342;-0.0192;-0.0431;
474034965255593;0.0568;-0.0143;0.0174;
474034985154708;0.0311;-0.0375;-0.0272;
474035005266055;-0.0257;0.0046;-0.0346;
474035025249055;0.0244;0.0040;0.0015;
474035045151324;0.0085;-0.0443;0.0204;
474035065272939;0.0128;0.0113;-0.0181;
474035085166285;-0.0287;-0.0045;-0.0443;
474035105158093;0.0293;-0.0247;-0.0205;
474035125147631;-0.0196;-0.0058;-0.0120;
474035145160131;-0.0189;0.0028;-0.0272;
474035165160708;-0.0434;-0.0369;-0.0120;
474035185169978;-0.0189;-0.0290;0.0406;
474035205251939;0.0318;-0.0162;-0.0657;
474035225154439;-0.0251;-0.0174;0.0088;
474035245154978;-0.0806;-0.0443;0.0009;
474035265271631;0.0574;0.0028;-0.0584;
474035285231785;0.0299;0.0089;-0.0052;
474035305155978;-0.0623;-0.0559;0.0113;
474035325152516;-0.0263;-0.0363;-0.0022;
474035345153093;0.0183;-0.0357;-0.0162;
474035365162054;-0.0012;-0.0271;-0.0120;
474035385163939;-0.0018;-0.0149;0.0180;
474035405164285;0.0495;-0.0137;-0.0303;
474035425154516;-0.0012;-0.0143;0.0155;
474035445151285;-0.0159;-0.0204;0.0106;
474035465142939;0.0336;-0.0345;0.0161;
474035485149247;0.0195;-0.0320;-0.0059;
474035505166977;0.0018;-0.0143;-0.0059;
474035525156631;-0.0012;-0.0223;0.0051;
474035545153977;0.0244;-0.0271;0.0021;
474035565149016;0.0275;-0.0229;0.0033;
474035585144631;0.0220;-0.0119;-0.0083;
474035605150823;0.0128;-0.0284;0.0088;
474035625160285;-0.0330;-0.0229;-0.0254;
474035645152631;-0.0171;-0.0045;-0.0107;
474035665154439;0.0073;-0.0333;0.0119;
474035685147939;0.0189;-0.0284;0.0143;
474035705159208;-0.0018;0.0016;-0.0327;
474035725149285;-0.0776;-0.0180;-0.0004;
474035745311246;0.0324;-0.0357;0.0039;
474035765141285;0.0458;-0.0100;-0.0004;
474035785152746;-0.0110;-0.0107;-0.0150;
474035805141054;-0.0031;-0.0180;0.0125;
474035825145554;-0.0574;-0.0314;0.0051;
474035845138131;-0.0018;-0.0180;-0.0059;
474035865136785;0.0171;-0.0094;-0.0040;
474035885131169;-0.0141;-0.0162;0.0247;
474035905235516;0.0024;-0.0308;-0.0181;
474035925160323;-0.0306;-0.0058;0.0137;
474035945149054;0.0244;-0.0369;0.0076;
474035965148746;0.0238;-0.0229;0.0009;
474035985153862;-0.0018;0.0083;-0.0071;
474036005150708;-0.0208;-0.0400;-0.0101;
474036025156092;-0.0202;-0.0143;0.0204;
474036045146862;0.0043;-0.0180;-0.0260;
474036065236015;-0.0122;-0.0143;-0.0199;
474036085158592;0.0079;-0.0162;0.0210;
474036105169131;-0.0251;-0.0198;-0.0272;
474036125155938;0.0281;-0.0149;-0.0071;
474036145148746;0.0476;-0.0210;0.0039;
474036165149362;0.0140;-0.0259;-0.0175;
474036185156400;0.0311;-0.0064;-0.0132;
474036205151361;0.0183;-0.0345;0.0167;
474036225151092;0.0049;-0.0223;-0.0138;
474036245148592;0.0647;-0.0003;-0.0107;
474036265236169;0.0678;-0.0052;-0.0016;
474036285158592;-0.0147;-0.0241;0.0137;
474036305156708;-0.0434;-0.0180;0.0222;
474036325157169;0.0599;0.0095;-0.0211;
474036345151208;0.0348;0.0113;0.0119;
474036365153246;-0.0018;-0.0223;0.0296;
474036385157938;0.0043;-0.0155;-0.0511;
474036405151361;-0.0208;-0.0143;0.0412;
474036425298477;0.0018;-0.0375;-0.0095;
474036445249131;0.0348;0.0126;-0.0144;
474036465151438;-0.0196;-0.0039;-0.0101;
474036485157400;-0.0257;-0.0284;0.0106;
474036505225861;-0.0849;-0.0100;0.0186;
474036525233554;0.0482;-0.0137;-0.0541;
474036545224207;-0.0672;-0.0076;0.0436;
474036565231400;-0.0122;-0.0180;-0.0223;
474036585155900;-0.0128;0.0229;-0.0071;
474036605218092;0.0537;-0.0155;-0.0028;
474036625150477;0.0189;-0.0052;0.0015;
474036645303400;-0.0409;-0.0149;-0.0113;
474036665147323;0.0043;-0.0235;0.0131;
474036685223938;0.0055;-0.0155;0.0021;
474036705149438;0.0110;-0.0033;0.0125;
474036725166938;-0.0159;0.0010;-0.0285;
474036745966976;-0.0183;-0.0100;0.0021;
474036765159938;0.0403;-0.0100;0.0015;
474036785155130;-0.0208;-0.0271;0.0222;
474036805138707;-0.0458;-0.0119;-0.0126;
474036825139284;0.0012;-0.0088;0.0058;
474036845195092;0.1020;-0.0137;-0.0248;
474036865211246;0.1020;-0.0033;-0.0156;
474036885214015;-0.0984;-0.0180;0.0308;
474036905215823;0.0214;-0.0137;-0.0285;
474036925260630;0.0599;0.0217;-0.0077;
474036945318630;-0.0715;-0.0320;0.0143;
474036965316476;-0.0611;-0.0271;0.0155;
474036985224822;-0.0006;0.0058;-0.0181;
474037005172092;0.0452;-0.0052;-0.0566;
474037025253669;-0.0397;-0.0155;0.0369;
474037045260169;-0.0379;-0.0253;-0.0046;
474037065272322;0.0373;0.0132;-0.0462;
474037085155822;-0.0049;-0.0131;0.0210;
474037105241553;-0.0244;-0.0168;-0.0089;
474037125242861;0.0366;0.0168;-0.0547;
474037145163399;0.0464;-0.0058;0.0082;
474037165154245;-0.0715;-0.0632;0.0406;
474037185145822;-0.0733;-0.0064;-0.0034;
474037205156630;0.0818;0.0119;-0.0486;
474037225250899;0.0299;0.0010;0.0198;
474037245163938;-0.0587;-0.0241;0.0210;
474037265157476;-0.0910;-0.0045;-0.0437;
474037285150284;0.0434;0.0022;0.0094;
474037305179784;0.0660;-0.0357;-0.0046;
474037325251784;-0.0519;-0.0216;0.0113;
474037345151630;0.0195;0.0028;-0.0321;
474037365244245;0.0360;-0.0088;0.0192;
474037385217207;-0.0018;-0.0345;0.0100;
474037405196207;-0.0330;-0.0076;0.0003;
474037425148476;-0.0025;-0.0094;-0.0511;
474037445190361;0.0617;-0.0229;0.0076;
474037465152091;-0.0287;-0.0308;0.0436;
474037485221630;-0.0092;0.0083;-0.0492;
474037505243476;0.0959;0.0223;-0.0168;
474037525252245;-0.0043;-0.0333;-0.0046;
474037545141976;-0.1283;-0.0131;0.0192;
474037565162476;0.0024;-0.0076;-0.0388;
474037585164745;0.1228;0.0077;-0.0083;
474037605156514;-0.1216;0.0046;-0.0065;
474037625153130;-0.0018;-0.0162;0.0015;
474037645237514;0.0910;-0.0015;-0.0168;
474037665150360;-0.0556;-0.0100;-0.0071;
474037685148245;-0.0593;0.0071;-0.0321;
474037705147937;0.0330;0.0016;-0.0266;
474037725160591;0.0171;-0.0180;0.0070;
474037745150899;-0.0513;-0.0180;-0.0028;
474037765795207;-0.0483;0.0034;-0.0156;
474037786150130;0.0531;0.0156;-0.0285;
474037806911168;-0.0208;-0.0119;-0.0095;
474037825147783;-0.0605;-0.0223;0.0094;
474037845137822;0.0018;-0.0180;-0.0407;
474037865127706;-0.0043;-0.0003;0.0113;
474037885135206;-0.0043;-0.0070;-0.0407;
474037905170245;-0.0403;0.0034;-0.0016;
474037925159553;0.0385;-0.0168;0.0174;
474037945236053;-0.0379;-0.0162;-0.0242;
474037965236591;-0.0654;-0.0033;0.0070;
474037985217860;0.0281;-0.0204;-0.0321;
474038005220206;0.0629;0.0193;-0.0065;
474038025223476;-0.0422;-0.0045;-0.0095;
474038045226322;-0.0403;-0.0491;0.0400;
474038065150091;0.0189;0.0034;0.0064;
474038085188322;0.0385;0.0156;-0.0828;
474038105153514;-0.0715;-0.0284;0.0345;
474038125159206;0.0055;-0.0021;0.0021;
474038145239283;0.0171;0.0022;-0.0388;
474038165218437;-0.0446;-0.0271;0.0357;
474038185148245;0.0153;-0.0137;0.0027;
474038205154437;0.0666;0.0193;-0.0559;
474038225157629;-0.0196;-0.0137;0.0497;
474038245147898;-0.0684;-0.0791;0.0271;
474038265235360;0.0238;-0.0241;0.0027;
474038285234898;0.1032;-0.0100;-0.0407;
474038305146245;-0.0135;-0.0443;0.0100;
474038325150245;-0.0135;-0.0534;0.0455;
474038345234514;0.0159;-0.0131;-0.0303;
474038365156668;0.0183;-0.0204;-0.0217;
474038385150398;-0.0367;-0.0381;0.0106;
474038405158629;0.0324;-0.0430;-0.0004;
474038425161091;0.0342;0.0022;-0.0529;
474038445146821;-0.0751;-0.0357;-0.0223;
474038465151321;-0.0403;-0.0589;0.0198;
474038485151552;0.0916;-0.0174;-0.0193;
474038505176629;0.0104;-0.0113;-0.0566;
474038525155629;-0.0635;-0.0339;0.0003;
474038545169283;-0.0519;-0.0601;-0.0126;
474038565152052;0.0721;-0.0235;-0.0566;
474038585150129;0.0654;-0.0027;-0.0468;
474038605150898;-0.0562;-0.0534;0.0143;
474038625244091;0.0385;-0.0443;0.0058;
474038645246937;-0.0018;-0.0003;-0.0718;
474038665246898;-0.0428;-0.0009;-0.0425;
474038685274129;0.0629;-0.0497;0.0015;
474038705156667;0.0330;-0.0614;0.0064;
474038725168437;-0.0067;0.0407;-0.0859;
474038745846590;-0.0733;-0.0449;-0.0205;
474038765300706;0.0434;-0.0833;0.0565;
474038785167937;0.0305;0.0065;-0.0902;
474038805171090;-0.0629;0.0089;-0.0321;
474038825193090;-0.0086;-0.0510;0.0259;
474038845189437;-0.0251;-0.0491;0.0100;
474038865138783;-0.0299;0.0217;-0.0663;
474038885130129;0.0537;0.0095;-0.0205;
474038905135436;-0.0281;-0.0601;0.0901;
474038925156860;-0.0446;-0.0504;0.0259;
474038945241090;-0.0183;0.0040;-0.0376;
474038965155283;0.0220;0.0040;-0.0059;
474038985155052;0.0006;-0.0461;0.0094;
474039005145821;-0.0092;-0.0412;0.0418;
474039025155436;0.0794;-0.0107;-0.0028;
474039045160321;-0.0159;-0.0443;-0.0205;
474039065258783;-0.1026;-0.0381;0.1059;
474039085250090;0.1478;0.0376;-0.0364;
474039105239706;-0.0330;-0.0302;0.0125;
474039125178206;-0.1552;-0.0351;0.0571;
474039145173321;0.0757;-0.0333;-0.0077;
474039165159629;0.0476;-0.0009;0.0039;
474039185227821;-0.0428;-0.0302;0.0082;
474039205223321;-0.0886;-0.0131;0.0406;
474039225226359;0.0513;-0.0082;-0.0156;
474039245229436;0.0366;-0.0430;0.0119;
474039265254744;-0.0996;-0.0589;0.0876;
474039285245244;0.0678;-0.0009;-0.0675;
474039305275590;0.0684;0.0058;-0.0126;
474039325175744;-0.0128;-0.0656;0.0815;
474039345174398;-0.0379;-0.0174;0.0033;
474039365161552;0.0727;-0.0009;-0.0144;
474039385159590;-0.0006;-0.0216;0.0082;
474039405147282;-0.0941;-0.0638;0.0467;
474039425155244;-0.0031;-0.0388;-0.0016;
474039445146551;0.0244;-0.0149;-0.0425;
474039465151705;-0.0684;-0.0559;0.0473;
474039485146975;0.0342;-0.0510;0.0039;
474039505150898;0.0916;-0.0186;-0.0193;
474039525151551;0.0226;-0.0107;-0.0126;
474039545156398;-0.0672;-0.0461;0.0314;
474039565312321;0.0030;-0.0504;0.0381;
474039585240321;0.0550;0.0156;-0.0340;
474039605165282;-0.0397;-0.0388;0.0015;
474039625158551;-0.0159;-0.0436;0.0308;
474039645247974;0.0037;-0.0027;-0.0584;
474039665160744;-0.0617;-0.0278;-0.0150;
474039685245128;0.0159;-0.0400;-0.0022;
474039705151013;-0.0073;-0.0394;-0.0162;
474039725148628;0.0458;-0.0467;-0.0083;
474039745167667;-0.0025;-0.0223;-0.0175;
474039765465513;0.0654;-0.0473;0.0039;
474039785237051;0.0776;-0.0174;-0.0291;
474039805168320;0.0153;0.0022;-0.0547;
474039825138936;-0.0067;-0.0369;0.0125;
474039845126590;0.0037;-0.0381;-0.0138;
474039865178474;0.0140;-0.0265;-0.0260;
474039885180628;0.0935;-0.0039;-0.0052;
474039905128513;0.0281;-0.0271;-0.0291;
474039925163243;-0.0947;-0.0278;-0.0199;
474039945252397;-0.0605;-0.0064;-0.0584;
474039965318666;0.0318;-0.0400;-0.0077;
474039985153666;0.0446;-0.0388;-0.0126;
474040005227320;0.0012;-0.0045;-0.0535;
474040025231166;0.0654;-0.0039;-0.0260;
474040045233205;0.0702;-0.0186;-0.0101;
474040065169666;-0.0275;-0.0326;0.0045;
474040085160474;0.0348;0.0089;-0.0840;
474040105224589;0.0690;-0.0216;-0.0065;
474040125173513;0.0104;-0.0381;-0.0028;
474040145170589;0.0079;0.0156;-0.0669;
474040165160397;-0.0135;-0.0107;-0.0309;
474040185147243;0.0195;-0.0388;-0.0168;
474040205149397;-0.0409;-0.0192;-0.0486;
474040225155089;-0.0361;-0.0131;-0.0645;
474040245157243;-0.0306;-0.0174;0.0045;
474040265257205;0.0232;-0.0687;0.0308;
474040285241935;0.0403;0.0016;-0.0456;
474040305156128;0.0574;0.0327;-0.0877;
474040325246243;-0.0416;-0.0687;0.0241;
474040345148435;0.0385;-0.0180;-0.0285;
474040365231320;0.0293;-0.0039;-0.0260;
474040385157974;0.0366;-0.0320;0.0137;
474040405153205;0.0043;-0.0284;0.0119;
474040425225089;-0.0104;0.0022;-0.0211;
474040445143128;-0.0391;0.0016;-0.0352;
474040465146320;-0.0354;-0.0461;0.0369;
474040485157935;-0.0226;-0.0394;0.0100;
474040505152974;-0.0189;-0.0058;-0.0694;
474040525151128;-0.0306;-0.0388;0.0442;
474040545155281;0.0495;-0.0632;0.0363;
474040565172743;0.0018;-0.0131;0.0204;
474040585167397;-0.0031;0.0089;-0.0431;
474040605151781;-0.0086;-0.0791;0.0632;
474040625234243;-0.0043;-0.0473;0.0595;
474040645169320;0.0128;0.0162;-0.0724;
474040665157051;0.0104;-0.0100;0.0406;
474040685151127;0.0959;-0.0565;0.0626;
474040705151974;0.0519;-0.0357;0.0253;
474040725147243;-0.0031;0.0205;-0.0181;
474040745164820;-0.0409;-0.0216;-0.0004;
474040768521781;0.0501;-0.0559;0.0296;
474040785163897;0.0611;-0.0223;-0.0010;
474040805274589;0.0030;0.0052;-0.0541;
474040825138397;-0.0281;-0.0284;0.0442;
474040845143666;0.0067;-0.0418;0.0210;
474040865135050;0.0189;-0.0192;-0.0065;
474040885127935;-0.0025;0.0119;-0.0138;
474040905128781;-0.0428;-0.0662;0.0027;
474040925133358;0.0049;-0.0320;0.0296;
474040945153050;0.0458;-0.0058;-0.0437;
474040965168127;0.0299;-0.0168;0.0302;
474040985243666;0.0440;-0.0241;0.0039;
474041005147473;0.0171;-0.0100;-0.0205;
474041025146820;0.0067;-0.0021;-0.0168;
474041045156012;-0.0470;-0.0241;-0.0113;
474041065243204;-0.0067;-0.0351;0.0503;
474041085153512;0.0605;0.0083;-0.0437;
474041105251935;-0.0037;-0.0137;-0.0065;
474041125197473;-0.0519;-0.0107;0.0137;
474041145160781;0.0214;-0.0155;-0.0370;
474041165150704;-0.0373;-0.0174;0.0210;
474041185143781;-0.0397;-0.0345;-0.0101;
474041205227396;0.0037;-0.0229;-0.0352;
474041225156896;0.0085;-0.0216;0.0094;
474041245243896;-0.0153;-0.0473;0.0015;
474041265447242;0.0110;-0.0253;0.0113;
474041285142589;0.1142;0.0065;-0.0517;
474041305137050;0.0079;-0.0168;0.0253;
474041325147819;-0.0092;-0.0149;-0.0285;
474041345188781;0.0311;-0.0155;-0.0059;
474041365284204;0.0641;-0.0473;0.0039;
474041385127742;-0.0147;-0.0192;0.0174;
474041405131396;0.0311;-0.0229;-0.0242;
474041425128473;0.0238;0.0095;-0.0187;
474041445127435;-0.0238;-0.0278;0.0186;
474041465125281;-0.0519;-0.0436;0.0064;
474041485129088;0.0482;0.0016;-0.0260;
474041505221742;-0.0092;-0.0119;-0.0358;
474041525157665;-0.0434;-0.0412;0.0461;
474041545222781;-0.0147;-0.0424;-0.0223;
474041565223627;0.0519;-0.0009;-0.0150;
474041585164742;-0.0116;-0.0015;-0.0217;
474041605234473;-0.0422;-0.0375;0.0094;
474041625239435;-0.0495;-0.0033;-0.0480;
474041645148473;-0.0098;-0.0290;-0.0126;
474041665160204;0.0122;-0.0491;0.0125;
474041685152511;0.0715;-0.0082;-0.0553;
474041705146050;0.0043;-0.0192;-0.0199;
474041725145858;-0.0135;-0.0100;-0.0327;
474041745164550;0.0348;-0.0418;-0.0083;
474041766214165;0.0568;-0.0375;0.0125;
474041785151088;0.0470;0.0003;-0.0578;
474041805157896;-0.0159;-0.0314;-0.0260;
474041825150434;-0.0513;-0.0302;-0.0065;
474041845178281;0.0092;-0.0241;-0.0132;
474041865167781;0.0250;-0.0058;-0.0413;
474041885207396;-0.0507;-0.0033;-0.0278;
474041905216165;-0.0141;-0.0449;0.0235;
474041925189242;0.0012;-0.0369;-0.0101;
474041945225973;0.0043;-0.0265;-0.0040;
474041965152473;-0.0416;-0.0540;-0.0040;
474041985149127;0.0409;-0.0302;-0.0498;
474042005214973;-0.0080;-0.0485;0.0235;
474042025167588;-0.0153;-0.0394;-0.0303;
474042045169088;0.0116;-0.0326;0.0161;
474042065152127;0.0537;-0.0522;-0.0449;
474042085196088;-0.0159;-0.0027;-0.0535;
474042105187165;0.0354;-0.0216;0.0070;
474042125172511;-0.0330;-0.0552;0.0241;
474042145136626;-0.0061;-0.0137;-0.0156;
474042165127050;0.0073;0.0022;-0.0327;
474042185131857;0.0055;-0.0333;-0.0040;
474042205131319;-0.0709;-0.0302;0.0125;
474042225157280;-0.0617;-0.0039;-0.0498;
474042245220011;0.0085;-0.0302;0.0204;
474042265157626;0.0220;-0.0601;0.0253;
474042285151319;0.0037;-0.0027;-0.0608;
474042305234165;0.0214;-0.0296;0.0308;
474042325205703;-0.0061;-0.0388;-0.0046;
474042345159203;-0.0232;-0.0247;0.0161;
474042365162242;0.0379;-0.0229;-0.0168;
474042385251742;0.0220;-0.0467;0.0167;
474042405156126;0.0122;-0.0235;0.0400;
474042425150626;-0.0348;-0.0198;-0.0071;
474042445148165;0.0379;-0.0418;0.0632;
474042465153395;0.0305;-0.0088;0.0119;
474042485154049;0.0079;0.0022;-0.0242;
474042505246742;-0.0593;-0.0186;0.0565;
474042525153472;-0.0446;-0.0546;0.0064;
474042545238395;-0.0006;-0.0467;0.0455;
474042565151434;0.0140;0.0278;-0.0352;
474042585238165;-0.0269;-0.0107;-0.0168;
474042605159472;-0.0605;-0.0345;0.0485;
474042625218588;0.0061;-0.0271;-0.0138;
474042645146741;0.0201;-0.0381;0.0265;
474042665231049;0.0311;-0.0308;0.0106;
474042685232126;0.0415;-0.0125;-0.0315;
474042705155780;0.0360;0.0089;0.0247;
474042725147434;-0.0128;-0.0216;0.0045;
474042749258511;0.0348;-0.0473;0.0155;
474042765835164;-0.0067;-0.0045;-0.0083;
474042785196549;0.0085;0.0016;-0.0437;
474042805204818;-0.0244;-0.0216;0.0565;
474042825180549;0.0177;-0.0100;-0.0205;
474042845221280;0.0373;-0.0186;0.0326;
474042865153434;0.0092;-0.0216;0.0320;
474042885147395;0.0092;-0.0186;-0.0376;
474042905223703;-0.0202;0.0089;0.0222;
474042925361203;-0.0073;-0.0351;0.0039;
474042945151318;0.0238;-0.0430;0.0626;
474042965224780;0.0421;-0.0082;-0.0034;
474042985304203;-0.0055;0.0071;-0.0291;
474043005173934;-0.0263;0.0193;0.0222;
474043025217472;-0.0141;-0.0168;0.0027;
474043045218510;-0.0006;-0.0284;0.0448;
474043065223433;0.0550;0.0138;-0.0065;
474043085234126;-0.0147;-0.0039;-0.0236;
474043105228472;-0.0031;-0.0290;0.0259;
474043125221741;-0.0037;-0.0131;0.0222;
474043145218280;0.0556;-0.0278;0.0045;
474043165229780;0.0281;0.0058;-0.0004;
474043185295203;-0.0275;-0.0210;-0.0156;
474043205228356;0.0024;-0.0241;0.0247;
474043225226741;0.0391;-0.0113;-0.0016;
474043245223895;-0.0324;-0.0131;0.0064;
474043265229626;0.0018;0.0065;0.0106;
474043285145972;0.0330;-0.0180;-0.0394;
474043305147741;-0.0617;0.0028;0.0174;
474043325226203;-0.0208;-0.0143;0.0210;
474043345154164;0.0861;-0.0491;0.0320;
474043365156741;-0.0018;0.0517;-0.0315;
474043385154626;-0.1680;0.0089;-0.0779;
474043405151279;0.0116;-0.0265;0.0632;
474043425152010;0.0574;-0.0534;0.0345;
474043445159895;-0.0825;-0.0143;-0.0113;
474043465160664;-0.0739;0.0425;-0.0871;
474043485153625;0.0647;-0.0235;-0.0340;
474043505153125;-0.0214;-0.0497;0.0809;
474043525153779;-0.0593;0.0003;-0.0651;
474043545143895;0.0324;0.0083;-0.0394;
474043565147895;0.0458;-0.0443;-0.0150;
474043585145856;0.0275;0.0010;-0.0651;
474043605155395;0.0348;0.0010;-0.0333;
474043625151395;0.0043;-0.0100;0.0051;
474043645151625;0.0696;-0.0412;0.0161;
474043665176048;0.0140;0.0382;-0.0572;
474043685155856;-0.0458;-0.0058;-0.0547;
474043705155318;-0.0672;-0.0333;0.0290;
474043725149510;0.0153;-0.0162;-0.0321;
474043748624625;0.0311;-0.0107;0.0009;
474043765155241;-0.0080;-0.0113;-0.0168;
474043785217625;0.0501;0.0113;-0.0517;
474043805159933;0.0055;-0.0003;0.0100;
474043825150048;0.0165;-0.0406;-0.0089;
474043845138125;0.0415;-0.0528;0.0332;
474043865175779;0.0959;0.0144;-0.0254;
474043885167933;0.0421;-0.0113;-0.0340;
474043905170433;0.0165;-0.0216;0.0589;
474043925167510;0.0391;-0.0143;0.0076;
474043945225202;0.0189;-0.0082;-0.0150;
474043965157894;0.0079;-0.0192;0.0394;
474043985162702;-0.0306;-0.0290;-0.0205;
474044005282356;-0.0226;0.0352;-0.0352;
474044025228702;-0.0000;-0.0186;0.0174;
474044045235740;-0.0391;-0.0742;0.0956;
474044065255471;0.0049;0.0394;-0.0474;
474044085153010;0.0085;-0.0381;-0.0242;
474044105152356;-0.0165;-0.0504;0.0864;
474044125226817;-0.0593;-0.0192;-0.0401;
474044145253702;0.0989;-0.0058;-0.0034;
474044165244779;0.0666;-0.0290;0.0491;
474044185340125;0.0110;-0.0467;0.0186;
474044205232317;-0.0031;0.0602;-0.0254;
474044225239740;0.0165;0.0065;-0.0272;
474044245228779;-0.0403;-0.0699;0.0882;
474044265216433;-0.0580;-0.0271;0.0051;
474044285218586;0.0342;0.0223;-0.1005;
474044305199202;-0.0434;-0.0479;0.0510;
474044325204779;-0.0183;-0.0210;0.0076;
474044345238009;0.0525;-0.0216;-0.0370;
474044365153125;0.0366;0.0095;0.0058;
474044385153971;-0.0623;-0.0345;-0.0443;
474044405159433;-0.0251;0.0065;0.0229;
474044425154586;0.0293;-0.0143;-0.0175;
474044445234048;0.0153;-0.0436;0.0479;
474044465161894;0.0098;-0.0326;-0.0095;
474044485149048;0.0324;0.0193;-0.0584;
474044505162125;0.0458;0.0248;-0.0138;
474044525161394;-0.0611;-0.0339;0.0100;
474044545272317;-0.0251;-0.0504;0.0357;
474044565172432;0.0244;0.0278;-0.0352;
474044585169663;-0.0025;-0.0064;0.0058;
474044605273317;-0.0660;-0.0198;0.0302;
474044625162086;-0.0293;-0.0278;-0.0285;
474044645154971;-0.0452;-0.0100;0.0186;
474044665230125;-0.0409;-0.0223;-0.0089;
474044685248509;-0.0067;-0.0253;-0.0162;
474044705175509;-0.0110;0.0046;-0.0132;
474044725149894;-0.1106;-0.0235;0.0302;
474044746879202;0.0928;-0.0534;0.0229;
474044765145163;0.0146;-0.0149;0.0070;
474044785149086;-0.0929;0.0028;-0.0792;
474044805257701;0.0452;-0.0284;0.0137;
474044825127894;0.0696;-0.0339;0.0167;
474044845183817;-0.0477;-0.0381;0.0253;
474044865131471;0.0055;0.0046;-0.0285;
474044885181971;-0.0043;-0.0021;-0.0358;
474044905179701;-0.0116;-0.0113;0.0094;
474044925182471;-0.0739;-0.0107;0.0094;
474044945224509;-0.0422;-0.0363;0.0051;
474044965150855;-0.0141;-0.0076;-0.0199;
474044985220009;-0.0208;-0.0137;-0.0199;
474045005234586;-0.0544;0.0071;0.0039;
474045025154201;-0.0287;-0.0155;-0.0034;
474045045149201;0.0385;-0.0491;0.0406;
474045065145855;0.0146;0.0376;-0.0407;
474045085222509;-0.0416;-0.0003;-0.0205;
474045105227509;-0.0232;-0.0388;0.0064;
474045125235663;0.0104;-0.0094;0.0106;
474045145229163;0.0024;-0.0461;0.0094;
474045165228470;0.0232;-0.0174;0.0039;
474045185223855;-0.0208;-0.0174;-0.0291;
474045205228317;-0.0226;-0.0235;0.0039;
474045225240817;0.0403;0.0052;-0.0272;
474045245146124;-0.0159;-0.0259;0.0106;
474045265220047;0.0318;-0.0241;0.0180;
474045285213740;0.0061;-0.0308;-0.0083;
474045305297240;-0.0220;-0.0198;-0.0248;
474045325232124;-0.0220;0.0022;0.0167;
474045345308316;0.0556;-0.0546;0.0247;
474045365153701;0.0195;-0.0076;0.0216;
474045385146778;-0.0336;-0.0168;-0.0541;
474045405236663;-0.0330;-0.0271;0.0314;
474045425135355;0.0556;-0.0284;0.0161;
474045445136124;0.0275;-0.0168;0.0100;
474045465144124;-0.0397;-0.0253;-0.0016;
474045485141163;-0.0416;-0.0388;-0.0004;
474045505135393;-0.0110;-0.0204;0.0113;
474045525138624;0.0513;-0.0388;-0.0309;
474045545134932;0.0256;-0.0192;0.0595;
474045565186470;0.0647;0.0113;0.0015;
474045585197009;0.0409;-0.0107;-0.0504;
474045605223393;-0.0898;-0.0290;0.0387;
474045625180932;-0.0098;-0.0424;0.0174;
474045645207201;0.1240;-0.0241;0.0161;
474045665130201;-0.0489;-0.0149;-0.0095;
474045685127316;-0.0202;-0.0125;-0.0431;
474045705130316;-0.0104;0.0071;0.0540;
474045725129201;0.0379;-0.0400;-0.0535;
474045745157124;-0.0092;-0.0210;0.0546;
474045765296662;0.0073;-0.0418;-0.0309;
474045785221816;0.0305;-0.0003;-0.0071;
474045807452278;-0.0458;-0.0088;-0.0150;
474045825126624;0.0250;-0.0259;-0.0413;
474045845134624;-0.0318;-0.0418;0.0381;
474045865128008;0.0079;-0.0369;-0.0040;
474045885126008;0.0232;0.0272;-0.1005;
474045905126701;-0.0837;0.0071;-0.0285;
474045925128355;-0.0617;-0.0644;0.0345;
474045945181278;0.1044;-0.0351;-0.0077;
474045965128085;0.0238;0.0107;-0.0834;
474045985180278;-0.0196;-0.0033;-0.0181;
474046005128624;-0.0293;-0.0491;0.0345;
474046025129931;0.0513;-0.0070;-0.0559;
474046045172393;-0.0257;-0.0180;-0.0028;
474046065129008;-0.0409;-0.0436;0.0363;
474046085131624;0.0941;0.0022;-0.0810;
474046105137393;-0.0507;0.0364;-0.0309;
474046125143085;-0.1063;-0.0516;0.0143;
474046145150662;0.0263;-0.0479;0.0620;
474046165170662;0.1014;-0.0052;-0.0724;
474046185136662;-0.0141;0.0150;-0.0498;
474046205230470;-0.0947;-0.0400;0.0412;
474046225132585;0.0470;-0.0467;-0.0168;
474046245141085;0.0745;0.0174;-0.0266;
474046265168931;-0.0513;-0.0113;-0.0266;
474046285173508;-0.0758;-0.0125;0.0137;
474046305181893;0.1051;-0.0045;0.0076;
474046325191162;-0.0324;-0.0204;-0.0034;
474046345185162;-0.0764;-0.0461;0.0565;
474046365186854;0.0397;-0.0467;0.0155;
474046385141893;0.1197;0.0211;-0.0621;
474046405151046;-0.0440;-0.0033;0.0082;
474046425212739;-0.0379;-0.0485;0.0320;
474046445142816;0.0476;-0.0131;-0.0101;
474046465135431;0.0293;-0.0021;-0.0132;
474046485139893;-0.0538;-0.0302;0.0015;
474046505144200;0.0073;-0.0339;0.0491;
474046525144162;0.0018;-0.0198;-0.0065;
474046545212085;-0.0299;-0.0314;0.0222;
474046565131969;-0.0513;-0.0375;0.0387;
474046585131854;0.0250;0.0126;-0.0126;
474046605130277;0.0336;0.0126;-0.0309;
474046625128816;-0.0519;-0.0333;0.0821;
474046645178123;-0.0348;-0.0693;0.0155;
474046665127585;0.0073;-0.0039;0.0339;
474046685129700;0.0159;0.0058;-0.0517;
474046705137739;-0.0287;0.0010;0.0125;
474046725129239;-0.0397;-0.0504;0.0497;
474046745937123;-0.0257;-0.0210;0.0259;
474046765140777;0.0562;-0.0247;-0.0101;
474046785156892;-0.0367;-0.0333;0.0412;
474046805211200;-0.0000;-0.0027;-0.0401;
474046825172162;0.0531;-0.0119;0.0088;
474046845189777;0.0409;-0.0388;0.0235;
474046865137546;0.0409;-0.0326;0.0284;
474046885171238;0.0324;-0.0131;-0.0449;
474046905172700;0.0818;0.0022;-0.0144;
474046925170585;0.0165;-0.0210;-0.0004;
474046945180200;-0.0287;-0.0076;-0.0138;
474046965171008;0.0818;-0.0210;0.0027;
474046985172661;0.0666;-0.0290;-0.0223;
474047005176431;-0.0141;0.0046;-0.0449;
474047025146123;0.0018;-0.0168;-0.0083;
474047045201277;0.0208;-0.0259;-0.0083;
474047065175200;0.0177;-0.0064;-0.0291;
474047085176238;-0.0971;-0.0174;-0.0022;
474047105174392;0.0366;-0.0033;-0.0584;
474047125174700;0.0018;-0.0113;-0.0089;
474047145171931;-0.0098;-0.0216;-0.0272;
474047165176238;-0.0165;-0.0082;0.0216;
474047185178354;-0.0171;-0.0424;-0.0260;
474047205187238;-0.0208;0.0071;-0.0120;
474047225132315;0.0140;-0.0119;-0.0682;
474047245195200;-0.0739;-0.0039;0.0137;
474047265182507;-0.0312;-0.0339;-0.0144;
474047285185161;0.0635;-0.0210;-0.0187;
474047305143546;-0.0513;0.0083;0.0033;
474047325137161;-0.0635;-0.0302;-0.0535;
474047345186892;-0.0269;-0.0107;0.0198;
474047365135584;0.0092;-0.0149;-0.0517;
474047385141046;0.0098;-0.0308;0.0320;
474047405143853;-0.0580;-0.0162;-0.0181;
474047425142315;0.0482;-0.0027;-0.0504;
474047445136277;0.0067;-0.0052;-0.0199;
474047465205392;-0.0202;-0.0192;0.0045;
474047485201700;-0.0135;-0.0394;0.0198;
474047505198738;0.0177;-0.0308;-0.0022;
474047525205892;0.0146;0.0217;-0.0639;
474047545207200;-0.0043;-0.0125;0.0198;
474047565202007;-0.0238;-0.0552;0.0119;
474047585208276;0.0580;0.0156;-0.0382;
474047605205238;-0.0550;-0.0027;-0.0443;
474047625205276;-0.0422;-0.0406;0.0247;
474047645146238;0.0208;-0.0351;-0.0083;
474047665200392;0.0030;0.0040;-0.0541;
474047685206546;-0.0086;-0.0168;-0.0144;
474047705248853;0.0079;-0.0522;0.0412;
474047725154122;0.0122;-0.0259;-0.0272;
474047745149122;0.0134;0.0107;-0.0584;
474047766109738;0.0006;-0.0204;0.0070;
474047785193661;0.0067;-0.0326;-0.0138;
474047805147122;0.0134;-0.0461;0.0302;
474047825154045;0.0373;-0.0223;-0.0120;
474047845143507;0.0287;0.0229;-0.0511;
474047865141545;-0.0874;-0.0204;0.0235;
474047885186276;0.0024;-0.0333;-0.0223;
474047905189545;0.0366;0.0016;-0.0022;
474047925139430;-0.0519;-0.0449;0.0039;
474047945138468;-0.0550;-0.0131;-0.0016;
474047965127468;-0.0080;-0.0088;-0.0504;
474047985214199;-0.0055;-0.0021;0.0094;
474048005144084;-0.0208;-0.0504;-0.0071;
474048025209468;0.0061;-0.0394;0.0412;
474048045220622;0.0177;-0.0058;-0.0175;
474048065221891;0.0348;-0.0119;-0.0327;
474048085227238;0.0067;-0.0241;0.0076;
474048105151007;0.0018;-0.0278;0.0180;
474048125207122;0.0403;-0.0265;-0.0065;
474048145195661;-0.0354;-0.0265;0.0015;
474048165271045;-0.0061;-0.0107;-0.0077;
474048185148661;0.0055;-0.0015;-0.0254;
474048205221276;0.0446;-0.0052;0.0051;
474048225152737;-0.0104;-0.0516;0.0387;
474048245220468;0.0024;-0.0320;-0.0034;
474048265156622;0.0079;0.0119;-0.0462;
474048285149968;-0.0147;-0.0284;-0.0071;
474048305218661;-0.0458;-0.0155;0.0021;
474048325225391;0.0085;-0.0143;-0.0474;
474048345221276;0.0079;-0.0369;0.0271;
474048365223122;-0.0373;-0.0351;0.0082;
474048385151660;0.0568;-0.0162;-0.0871;
474048405151622;0.0006;0.0101;-0.0144;
474048425151353;0.0079;-0.0522;-0.0181;
474048445153930;0.0153;-0.0235;0.0180;
474048465210122;-0.0409;-0.0180;-0.0248;
474048485141468;0.0391;-0.0235;-0.0187;
474048505199853;-0.0025;-0.0259;-0.0181;
474048525153583;-0.0776;0.0132;-0.0407;
474048545144083;0.0623;-0.0326;0.0339;
474048565165814;0.0030;-0.0724;0.0204;
474048585149122;-0.0635;-0.0003;-0.0272;
474048605148276;0.0427;0.0028;-0.0614;
474048625148737;0.0702;-0.0418;0.0455;
474048645140814;-0.0165;-0.0436;0.0174;
474048665137468;-0.0232;0.0162;-0.0327;
474048685194853;0.0599;-0.0216;0.0015;
474048705161814;0.0696;-0.0620;0.0595;
474048725157160;-0.1277;-0.0052;-0.0040;
474048745157045;-0.0617;0.0156;-0.0730;
474048765144891;0.1527;-0.0400;0.0797;
474048785157737;-0.1478;-0.0400;0.0467;
474048805177352;-0.0525;0.0181;-0.1042;
474048825131160;0.1112;0.0181;0.0491;
474048845130429;0.0635;-0.0852;0.0638;
474048865154275;-0.0947;-0.0479;0.0778;
474048885251199;0.0287;0.0065;-0.0914;
474048905142775;0.0916;-0.0137;0.0711;
474048925144737;0.0324;-0.0772;0.0442;
474048945148814;-0.0348;-0.0125;0.0186;
474048965210429;0.0959;0.0107;-0.0376;
474048985332929;0.0666;-0.0357;0.0430;
474049005151583;-0.1216;-0.0821;0.0571;
474049025227545;-0.0135;0.0113;-0.0816;
474049045156160;0.0275;0.0071;-0.0040;
474049065224314;-0.1289;-0.0565;0.0051;
474049085149852;-0.0135;-0.0443;0.0479;
474049105216891;0.0873;-0.0210;-0.0504;
474049125150814;-0.0006;0.0150;-0.0297;
474049145218775;-0.0428;-0.0180;-0.0517;
474049165224929;-0.0446;-0.0216;-0.0132;
474049185300814;0.0806;-0.0265;-0.0175;
474049205153237;0.0470;-0.0113;-0.0352;
474049225230737;-0.0507;-0.0223;0.0284;
474049245150583;0.0232;-0.0296;-0.0285;
474049265215968;0.0073;0.0229;-0.0975;
474049285220814;-0.0043;-0.0333;0.0174;
474049305219891;0.0116;-0.0473;0.0394;
474049325311660;-0.0238;-0.0485;-0.0291;
474049345224775;0.0556;0.0254;-0.0523;
474049365228698;0.0067;-0.0076;0.0155;
474049385227121;0.0397;-0.0388;0.0332;
474049405157737;-0.0049;-0.0021;-0.0266;
474049425151890;0.0030;-0.0100;-0.0223;
474049445252583;-0.0263;-0.0326;0.0632;
474049465150044;0.0238;-0.0516;0.0100;
474049485236929;0.0049;-0.0076;0.0339;
474049505149198;0.0470;0.0156;-0.0346;
474049525155467;0.0238;-0.0614;0.1169;
474049545154583;-0.0452;-0.0467;0.0613;
474049565153237;0.0232;0.0462;-0.0743;
474049585140698;-0.0006;-0.0131;0.0363;
474049605140506;-0.0098;-0.0956;0.1230;
474049625143390;0.0605;-0.0443;0.0510;
474049645135236;0.0708;0.0425;-0.0504;
474049665130275;0.0043;-0.0137;0.0595;
474049685148121;0.0049;-0.0778;0.1084;
474049705146890;-0.0770;-0.0107;-0.0089;
474049725147775;-0.0080;0.0132;0.0051;
474049745762659;0.0599;-0.0607;0.0968;
474049765282890;0.0513;-0.0876;0.1194;
474049785208506;0.0745;0.0565;-0.0382;
474049805141198;0.0898;-0.0131;0.0235;
474049825148582;0.0079;-0.0736;0.1334;
474049845126506;-0.0128;-0.0693;0.0394;
474049865130198;0.0104;-0.0082;-0.0297;
474049885128352;0.0116;-0.0424;0.0387;
474049905159852;0.0183;-0.0632;0.0491;
474049925147967;0.0935;0.0040;-0.0175;
474049945153121;0.0128;-0.0271;-0.0205;
474049965218198;-0.1112;-0.0724;0.0858;
474049985226198;-0.0617;-0.0736;-0.0156;
474050005230198;0.0947;-0.0058;-0.0236;
474050025151582;-0.1509;-0.0381;0.0186;
474050045306352;-0.0825;-0.0559;-0.0150;
474050065227236;0.1570;-0.0204;0.0039;
474050085151544;-0.0067;-0.0320;0.0277;
474050105218275;-0.1087;-0.0418;-0.0211;
474050125218621;-0.0580;-0.0168;-0.0529;
474050145150890;0.0208;-0.0229;-0.0034;
474050165220505;0.0030;-0.0461;0.0235;
474050185233775;-0.0495;-0.0473;0.0583;
474050205242775;-0.0244;-0.0100;-0.0199;
474050225222621;-0.0385;0.0089;-0.0431;
474050245221005;-0.0648;-0.0473;-0.0156;
474050265218236;-0.1057;-0.0497;0.0186;
474050285249121;-0.0067;-0.0204;-0.0278;
474050305161390;-0.0483;-0.0730;0.0271;
474050325219236;0.0085;-0.0491;0.0766;
474050345218121;0.0880;0.0058;-0.0651;
474050365222544;0.0342;0.0016;-0.0004;
474050385229236;-0.0367;-0.0711;0.0827;
474050405228274;-0.0147;-0.0308;-0.0132;
474050425177390;0.1277;-0.0082;0.0033;
474050445227005;0.0525;-0.0711;0.1133;
474050465155044;-0.0128;-0.0052;-0.0321;
474050485155544;0.0024;0.0602;-0.1323;
474050505153505;0.0165;-0.0638;0.0687;
474050525200120;0.0342;-0.0632;0.0216;
474050545141544;-0.1998;0.0620;-0.1054;
474050565206197;0.0623;-0.0369;-0.0346;
474050585143620;-0.0043;-0.0986;0.1682;
474050605142967;-0.0483;-0.0088;-0.0407;
474050625923774;-0.0470;0.0260;-0.1091;
474050645135351;0.0605;-0.0394;0.0497;
474050665179351;0.0617;-0.0650;0.0106;
474050685217467;-0.1320;-0.0100;-0.0437;
474050705218774;-0.0513;-0.0003;-0.0254;
474050725147813;0.1197;-0.0662;0.0589;
474050745175620;0.0458;-0.0369;-0.0132;
474050765157005;-0.1252;-0.0107;-0.0443;
474050785260966;0.1967;-0.0284;-0.0254;
474050805137351;0.0550;-0.0436;0.0424;
474050825194659;-0.1741;-0.0644;0.0241;
474050845178313;-0.0947;-0.0064;-0.0126;
474050865131505;0.1979;-0.0400;0.0155;
474050885130466;0.0818;-0.0974;0.1017;
474050905135236;-0.1301;-0.0216;-0.0016;
474050925132236;-0.1167;0.0284;-0.0840;
474050945182389;0.0586;-0.0992;0.1127;
474050965263928;0.0550;-0.1664;0.1518;
474050985185082;-0.0538;-0.0180;-0.0120;
474051005191159;-0.0281;0.0932;-0.1476;
474051025199120;0.3775;-0.1799;0.2367;
474051045138697;0.1252;-0.1597;0.1029;
474051065134197;-0.1839;0.0541;-0.1396;
474051085147543;0.0458;-0.0601;0.0100;
474051105147120;0.2511;-0.1927;0.1597;
474051125147735;0.0073;-0.0980;0.0235;
474051145219312;-0.1827;0.0028;-0.0828;
474051165158158;0.1906;-0.0736;0.0485;
474051185302235;0.2132;-0.1707;0.0681;
474051205219389;-0.1704;-0.0956;-0.0162;
474051225158351;-0.1918;-0.0345;-0.1005;
474051245297466;0.2346;-0.0607;-0.0523;
474051265220428;-0.0831;-0.1518;0.0540;
474051285156043;-0.2401;-0.0888;-0.0449;
474051305242081;0.1558;-0.0296;-0.1018;
474051325192851;0.2278;-0.0748;-0.0498;
474051345197120;-0.1857;-0.0895;-0.0113;
474051365141851;-0.2273;-0.0901;-0.0352;
474051385219543;0.1594;-0.0797;-0.0437;
474051405240697;0.1570;-0.0962;0.0021;
474051425154004;-0.1136;-0.0681;-0.0358;
474051445173620;-0.1747;-0.0467;-0.0382;
474051465246620;0.2407;-0.0919;-0.0596;
474051485150620;0.1258;-0.1224;0.0589;
474051505148543;-0.1588;-0.0943;0.0076;
474051525154004;0.0794;-0.0870;0.0027;
474051545148312;0.1124;-0.0571;-0.0559;
474051565158389;-0.0587;-0.0424;-0.0022;
474051585153927;-0.0043;-0.0766;0.0357;
474051605152235;0.0531;-0.1194;0.0387;
474051625151235;-0.0312;-0.0809;-0.0645;
474051645155850;-0.1485;-0.0809;0.0076;
474051665155812;0.0037;-0.0950;0.0100;
474051685151389;0.1124;-0.0632;0.0021;
474051705224235;0.0324;-0.0565;-0.0211;
474051725147004;-0.1313;-0.0504;-0.0144;
474051745166504;-0.0978;-0.1169;0.0082;
474051765195504;0.0183;-0.0748;-0.0120;
474051785238004;-0.0672;-0.0430;-0.0602;
474051805148350;-0.0373;-0.0986;-0.0065;
474051825141389;0.0623;-0.1163;0.0864;
474051845128543;0.1674;-0.0895;0.0864;
474051865189773;0.0226;0.0083;-0.0840;
474051885126696;-0.0880;-0.0009;-0.1207;
474051905167696;-0.0751;-0.1096;0.0650;
474051925127696;0.0311;-0.1493;0.0540;
474051945148427;0.0318;-0.0333;-0.0474;
474051965154504;0.0269;0.0071;-0.0437;
474051985235735;-0.0244;-0.0394;-0.0278;
474052005150812;-0.0012;-0.0950;-0.0120;
474052025152081;0.0250;-0.0021;-0.1140;
474052045222042;-0.0800;-0.0192;-0.0547;
474052065156773;-0.0183;-0.1365;-0.0199;
474052085154619;-0.0159;-0.0546;-0.0675;
474052105162465;0.0171;0.0407;-0.1738;
474052125148850;0.0501;-0.0278;0.0265;
474052145152235;0.1478;-0.1261;0.0772;
474052165154004;-0.0397;-0.0430;-0.0743;
474052185156427;-0.1985;0.0144;-0.1567;
474052205154312;0.0232;-0.0381;-0.0529;
474052225149004;0.1332;-0.1078;0.0430;
474052245149773;0.0220;-0.0155;-0.0602;
474052265148235;-0.0574;-0.0265;-0.0278;
474052285152658;0.1350;-0.1096;0.0290;
474052305156619;-0.0189;0.0229;-0.0792;
474052325148850;-0.1149;0.0455;-0.1335;
474052345152427;0.0263;-0.0956;0.0522;
474052365151965;0.0256;-0.1371;0.1084;
474052385171119;-0.1582;-0.0491;-0.0785;
474052405220119;-0.0929;0.0596;-0.1066;
474052425153504;0.1710;-0.0278;-0.0370;
474052445301850;0.0360;-0.0656;0.1243;
474052465152234;-0.2028;-0.0778;-0.0046;
474052485145734;-0.0214;0.0040;-0.0388;
474052505138696;0.0715;-0.0308;-0.0504;
474052525164696;-0.1423;-0.0748;0.0094;
474052545189696;-0.0452;0.0199;-0.1097;
474052565192811;0.0770;-0.0100;-0.0175;
474052585204234;0.0006;-0.0601;0.0448;
474052605135734;0.0269;0.0040;-0.0077;
474052625130388;0.0360;0.0040;-0.0547;
474052645231888;-0.0177;0.0071;-0.0052;
474052665237542;-0.1472;-0.0070;-0.0040;
474052685149504;-0.0037;-0.0785;0.0693;
474052705149388;0.1191;-0.1182;0.1450;
474052725228734;-0.0098;-0.0210;0.0045;
474052746702773;-0.0177;0.0883;-0.1812;
474052765161850;0.1906;-0.1493;0.2562;
474052785200273;0.0360;-0.1328;0.0833;
474052805646850;-0.3030;0.1689;-0.3211;
474052825145542;-0.1087;0.1146;-0.1128;
474052845134965;0.3628;-0.2513;0.2745;
474052865150503;-0.0782;-0.0888;0.0039;
474052885221003;-0.3739;0.2044;-0.2826;
474052905149311;0.1209;0.0065;-0.0315;
474052925243657;0.2627;-0.1658;0.1915;
474052945220619;-0.2529;-0.0174;-0.0578;
474052965149926;-0.1961;0.1225;-0.2313;
474052985163965;0.1857;-0.0119;0.0375;
474053005154965;0.0733;-0.1072;0.0613;
474053025242503;-0.1747;0.0327;-0.1409;
474053045239734;0.1539;0.0498;-0.0871;
474053065175388;0.1423;-0.0406;0.0174;
474053085165272;-0.0947;-0.0302;0.0241;
474053105153657;-0.0409;0.0034;-0.0584;
474053125223080;0.1558;-0.0320;0.0241;
474053145154465;0.0427;-0.0461;0.0161;
474053165148234;-0.1368;0.0413;-0.0559;
474053185261080;-0.0012;0.0437;-0.0614;
474053205155542;0.1222;-0.0247;0.0705;
474053225252580;0.0067;-0.0247;0.0552;
474053245160042;-0.0953;0.0187;-0.0187;
474053265250426;0.0751;0.0199;0.0412;
474053285161734;0.0208;-0.0119;0.0302;
474053305149926;-0.1124;-0.0131;0.0229;
474053325157657;-0.0672;-0.0039;0.0210;
474053345153888;0.0519;-0.0155;-0.0010;
474053365160849;0.0580;0.0083;0.0302;
474053385248503;0.0061;0.0156;0.0149;
474053405228157;0.0409;-0.0204;0.0534;
474053425162272;0.0043;-0.0216;0.0394;
474053445262772;-0.0342;-0.0192;0.0100;
474053465153272;-0.0128;0.0022;-0.0065;
474053485250041;0.0030;0.0645;-0.0523;
474053505153041;0.0281;-0.0369;0.0412;
474053525162388;0.0519;-0.0895;0.1310;
474053545153849;0.0183;0.0119;-0.0187;
474053565156888;0.0311;0.0828;-0.0602;
474053585164080;0.0256;-0.0088;0.0137;
474053605156118;-0.0489;-0.0357;0.0174;
474053625169849;-0.0776;0.0321;-0.0621;
474053645245311;-0.0073;0.0150;-0.0352;
474053665174349;0.1038;-0.0449;0.0992;
474053685171657;-0.0244;0.0138;-0.0223;
474053705152503;-0.0287;0.0950;-0.1299;
474053725147041;0.0568;0.0028;-0.0052;
474053745163887;-0.0281;-0.0840;0.0992;
474053765151195;-0.0122;0.0627;-0.1115;
474053785162310;-0.0293;0.0248;-0.0132;
474053805264118;-0.0183;-0.0302;0.0418;
474053825211964;-0.0574;0.0248;-0.0425;
474053845178195;0.0165;0.0400;-0.0059;
474053865207310;0.0837;-0.0070;0.0601;
474053885139657;0.0690;-0.0088;0.0314;
474053905206272;-0.0806;-0.0088;-0.0590;
474053925232849;-0.0416;0.0083;-0.0468;
474053945225041;-0.0104;-0.0314;0.0699;
474053965156003;0.0373;-0.0339;0.0125;
474053985246772;0.0800;0.0596;-0.0168;
474054005148926;-0.0251;-0.0058;0.0161;
474054025204195;0.1203;0.0174;-0.0254;
474054045244041;0.1173;0.0242;0.0015;
474054065264733;0.0030;-0.0424;0.0394;
474054085159656;-0.0605;-0.0003;0.0394;
474054105151810;-0.0299;-0.0076;-0.0621;
474054125309849;0.0843;0.0126;-0.0217;
474054145164695;0.0055;-0.0271;0.0009;
474054165146464;-0.0275;0.0095;0.0045;
474054185221733;0.0244;0.0559;-0.0669;
474054205224464;0.1038;-0.0186;-0.0199;
474054225327502;-0.1588;-0.0192;0.0412;
474054245243810;-0.0275;0.0724;-0.1048;
474054265226925;0.0849;-0.0662;0.1273;
474054285284695;-0.1002;-0.0565;0.0265;
474054305218849;-0.1698;0.0718;-0.1628;
474054325145233;-0.0055;0.0553;-0.0260;
474054345236079;0.1136;-0.0687;0.0687;
474054365221541;-0.0373;-0.0113;0.0766;
474054385223464;-0.1155;0.0602;-0.0987;
474054405223195;-0.0067;0.0254;0.0167;
474054425262772;-0.0458;-0.0803;0.0778;
474054445155002;-0.0599;0.0242;-0.0285;
474054465151156;-0.0477;0.0523;-0.0529;
474054485150156;0.0647;-0.0131;0.0791;
474054505151002;-0.0177;-0.0247;0.0381;
474054525157771;-0.0544;0.0474;-0.0956;
474054545298425;0.0629;0.0749;0.0094;
474054565146694;0.1521;-0.0424;0.0913;
474054585161733;-0.0666;-0.0693;0.0742;
474054605152233;-0.1179;0.0113;-0.0162;
474054625154194;0.1350;0.0107;-0.0498;
474054645229579;0.0348;0.0168;0.0222;
474054665142694;-0.0336;-0.0003;-0.0077;
474054685141002;0.0745;-0.0192;0.0675;
474054705147887;0.1460;-0.0278;0.0290;
474054725149617;-0.0312;0.0407;-0.0737;
474054745823233;0.0330;0.0303;0.0351;
474054765253541;0.1490;0.0132;-0.0394;
474054785153002;-0.0813;0.0132;0.0595;
474054805164194;-0.0727;-0.0522;0.0406;
474054825192502;0.0818;-0.0229;-0.0010;
474054845151656;-0.0635;0.0388;-0.0517;
474054865178194;-0.0837;0.0553;-0.0737;
474054885127348;0.2016;0.0040;0.0534;
474054905220002;0.0690;-0.0247;0.0558;
474054925227425;-0.0733;0.0193;-0.0743;
474054945226387;-0.1930;0.0364;-0.0352;
474054965221387;0.1057;-0.0406;0.0051;
474054985220887;0.1215;-0.0064;0.0235;
474055005223463;-0.1790;0.0260;-0.0278;
474055025227156;-0.0208;-0.0406;0.0467;
474055045248425;0.1307;-0.0675;0.0754;
474055065315617;-0.0159;0.0798;-0.1158;
474055085264386;-0.1301;0.0883;-0.0651;
474055105232694;0.0263;-0.0699;0.1243;
474055125249809;0.1527;-0.0559;0.0229;
474055145150809;-0.1735;0.0590;-0.0651;
474055165227233;-0.1191;0.0138;-0.0340;
474055185228925;0.1246;-0.0656;0.0742;
474055205229540;0.1044;-0.0253;0.0253;
474055225227156;-0.1149;0.0578;-0.0633;
474055245226809;0.0421;-0.0107;-0.0077;
474055265251040;0.1356;-0.0241;0.0571;
474055285225117;-0.0183;0.0376;-0.0669;
474055305182809;-0.1185;0.0437;-0.0083;
474055325154732;0.0482;-0.0333;0.0351;
474055345158579;0.0941;-0.0369;0.0339;
474055365153848;-0.1741;0.0217;-0.0639;
474055385222309;-0.0996;0.0517;-0.0474;
474055405229655;0.1154;-0.0119;0.0259;
474055425240655;0.0635;-0.0559;0.0754;
474055445161040;-0.0996;0.0217;-0.0107;
474055465244425;-0.0764;0.0633;-0.1024;
474055485156617;0.0476;0.0058;0.0461;
474055505156078;0.0360;-0.0180;0.0119;
474055525247194;-0.0629;0.0126;0.0070;
474055545162309;-0.0263;0.0333;-0.0309;
474055565147732;-0.0208;-0.0039;-0.0107;
474055585148386;0.0092;0.0046;-0.0046;
474055605155232;-0.0275;0.0071;-0.0126;
474055625150617;0.0018;-0.0137;0.0296;
474055645182271;0.0599;-0.0052;0.0058;
474055665152578;0.0391;0.0400;-0.0590;
474055685162040;-0.1252;0.0065;0.0100;
474055705270386;-0.0672;-0.0302;-0.0168;
474055725236001;-0.0018;0.0254;-0.0327;
474055745154732;-0.0782;-0.0009;-0.0303;
474055765160424;-0.0868;-0.0528;0.0705;
474055785152463;-0.0306;-0.0210;0.0119;
474055805312540;0.0672;0.0498;-0.0767;
474055825145463;0.0128;0.0119;0.0259;
474055845133501;-0.0642;-0.0901;0.1084;
474055865169347;0.0427;0.0449;-0.0614;
474055885168117;0.0666;0.0791;-0.1152;
474055905171309;-0.0776;-0.0235;0.0797;
474055925171578;-0.0721;-0.0626;0.0681;
474055945233270;0.0318;0.0071;-0.0059;
474055965217501;0.0562;0.0144;-0.0052;
