Sensor: LSM6DSL Accelerometer
Vendor: STM
TimestampAcc [ns]; AccX [m/s^2]; AccY [m/s^2]; AccZ [m/s^2]
473995414320987;-0.6213;9.6618;1.1193;
473995440988727;-0.3879;9.9036;1.0283;
473995465007116;-0.4609;9.4906;1.1887;
473995486344695;-0.6129;9.4475;1.4138;
473995507029254;-0.4178;9.8653;0.9697;
473995527339495;-0.3747;9.7193;1.2653;
473995547493981;-0.2813;9.6905;1.4030;
473995567602551;-0.7051;9.7229;1.0666;
473995587639624;-0.1844;9.8258;0.8751;
473995607641776;-0.4322;9.5445;1.0822;
473995627636102;-0.2406;9.5756;1.1121;
473995647712092;-0.6117;9.7037;0.9517;
473995667688972;-0.2969;9.7767;1.0786;
473995687660296;-0.3508;9.6881;1.2258;
473995707648074;-0.5567;9.6259;1.3815;
473995727644078;-0.2610;9.8438;1.1205;
473995747648253;-0.5854;9.6786;1.0259;
473995767645206;-0.2538;9.6845;1.2474;
473995787641029;-0.5650;9.6606;1.1899;
473995807677806;-0.2789;9.8426;1.0618;
473995827664156;-0.5842;9.6738;1.0642;
473995847656792;-0.2454;9.6905;1.0822;
473995867656822;-0.4908;9.6594;0.9840;
473995887675337;-0.2981;9.6750;1.1708;
473995907663556;-0.4513;9.6426;1.1863;
473995927657877;-0.3879;9.6929;1.2486;
473995947902595;-0.3412;9.8378;1.1205;
473995967789415;-0.5962;9.6594;1.1349;
473995987732422;-0.1844;9.6941;1.1504;
473996007688175;-0.5351;9.6786;1.2390;
473996027672936;-0.2813;9.7863;1.1624;
473996047657721;-0.5088;9.6534;1.3096;
473996067673094;-0.2298;9.7947;1.0882;
473996087785050;-0.6476;9.6738;0.8906;
473996107717816;-0.2251;9.6690;1.0606;
473996127694737;-0.4166;9.6199;1.0642;
473996147679025;-0.3974;9.6690;1.2198;
473996167678630;-0.3675;9.7420;1.1636;
473996187752433;-0.4932;9.6714;1.2318;
473996207729392;-0.2741;9.7791;1.1935;
473996227691756;-0.5411;9.6618;1.1289;
473996247666361;-0.2394;9.7348;1.2342;
473996267661010;-0.5112;9.6714;1.1732;
473996287674738;-0.1951;9.7779;1.0582;
473996307703025;-0.6357;9.6079;1.2498;
473996327682592;-0.1891;9.7767;1.0750;
473996347673645;-0.5878;9.7001;0.9278;
473996367712825;-0.2825;9.6774;1.1444;
473996387694338;-0.3974;9.6666;1.0331;
473996407687729;-0.4453;9.6522;1.1480;
473996427668655;-0.2969;9.7229;1.1480;
473996447666753;-0.5076;9.6522;1.3072;
473996467670013;-0.2550;9.7983;1.1660;
473996487680182;-0.5962;9.6941;1.0558;
473996507670190;-0.3100;9.7372;1.1899;
473996527696732;-0.5638;9.6618;1.1732;
473996547724926;-0.1508;9.7827;1.0523;
473996567730465;-0.6428;9.5744;1.1732;
473996587721619;-0.1712;9.7336;1.0295;
473996607690350;-0.5602;9.7169;0.8751;
473996627683254;-0.3711;9.6678;1.1384;
473996647697245;-0.3531;9.6917;1.1001;
473996667713836;-0.4717;9.6762;1.2510;
473996687690113;-0.2334;9.7552;1.1253;
473996707676809;-0.5722;9.6127;1.2677;
473996727667368;-0.1724;9.8007;1.0247;
473996747694648;-0.6644;9.7169;1.2390;
473996767678692;-0.1879;9.7396;1.2785;
473996787663483;-0.5818;9.5732;1.1552;
473996807675590;-0.2322;9.7073;0.9732;
473996827687836;-0.6105;9.6163;1.0714;
473996847697920;-0.2023;9.7576;1.0463;
473996867672116;-0.5375;9.7695;0.9266;
473996887697541;-0.4034;9.7073;1.2270;
473996907709042;-0.2574;9.7408;1.2294;
473996927682062;-0.5758;9.6510;1.2450;
473996947700802;-0.2083;9.7947;1.0702;
473996967678615;-0.6225;9.6462;1.1600;
473996987664098;-0.1425;9.7336;0.9685;
473997007661820;-0.5195;9.6774;1.2019;
473997027697547;-0.1437;9.7217;1.1109;
473997047682564;-0.5160;9.5996;1.0247;
473997067710996;-0.2155;9.7169;0.9254;
473997087694019;-0.6369;9.6618;0.9290;
473997107679473;-0.3280;9.7264;1.1061;
473997127719181;-0.3855;9.7492;1.1791;
473997147698285;-0.5411;9.6594;1.3156;
473997168147202;-0.2227;9.7899;1.2175;
473997187960469;-0.5806;9.6714;1.1456;
473997207810140;-0.1927;9.7312;0.8882;
473997227732803;-0.6596;9.5744;1.0271;
473997247705884;-0.2861;9.7767;1.0942;
473997267675694;-0.5818;9.6474;1.0439;
473997287685888;-0.2274;9.6965;1.0163;
473997307694408;-0.5100;9.6534;0.8906;
473997327699225;-0.2526;9.7025;0.9972;
473997347703191;-0.4633;9.6738;1.0846;
473997367677290;-0.3496;9.6762;1.2186;
473997387707820;-0.3280;9.7887;1.1815;
473997407733374;-0.5435;9.6893;1.2510;
473997427697228;-0.2478;9.7528;1.1815;
473997447683943;-0.5148;9.6558;1.0523;
473997467708820;-0.2023;9.7300;0.9074;
473997487702277;-0.6189;9.6091;1.0127;
473997507687314;-0.1963;9.7815;1.1325;
473997527693505;-0.6357;9.6450;1.0175;
473997547680428;-0.2670;9.6869;1.0690;
473997567682754;-0.4908;9.6762;0.9924;
473997587687552;-0.3915;9.7025;1.0918;
473997607871143;-0.3998;9.6845;1.1648;
473997627765458;-0.4130;9.6546;1.2582;
473997647717942;-0.3364;9.7875;1.1815;
473997667699454;-0.5411;9.7049;1.1791;
473997687681094;-0.2454;9.7252;1.1085;
473997707670280;-0.5327;9.6486;0.9541;
473997728034873;-0.1879;9.7767;1.1660;
473997747849188;-0.6189;9.5804;1.1516;
473997767800654;-0.1209;9.7504;0.9864;
473997787731425;-0.5650;9.6594;0.8200;
473997807682907;-0.3340;9.6498;1.0511;
473997827661455;-0.3651;9.7049;1.0726;
473997847647633;-0.4884;9.7025;1.2905;
473997867643453;-0.2610;9.7552;1.2701;
473997887687651;-0.5878;9.6235;1.3300;
473997907672827;-0.1987;9.8019;1.0690;
473997927669742;-0.6369;9.6822;0.8392;
473997947694065;-0.2753;9.6426;0.9756;
473997967709130;-0.3795;9.6474;0.9744;
473997987685913;-0.5124;9.6510;0.9385;
473998007672362;-0.5866;9.5984;0.9553;
473998027668914;-0.2394;9.6905;1.0918;
473998047664786;-0.4788;9.7109;1.0127;
473998067671068;-0.4669;9.6833;1.3072;
473998087672478;-0.2191;9.7827;1.3408;
473998107703452;-0.5962;9.6582;1.1791;
473998127718709;-0.1209;9.7815;0.9852;
473998147687510;-0.6728;9.6031;1.0403;
473998167671757;-0.1832;9.7013;1.0546;
473998187666323;-0.4178;9.6786;0.9170;
473998207664990;-0.4944;9.6486;1.2641;
473998227702689;-0.2658;9.7767;1.2629;
473998247716750;-0.3244;9.6917;1.1061;
473998267727031;-0.4597;9.6690;1.1732;
473998287750210;-0.4549;9.6582;1.3300;
473998307702472;-0.2682;9.8090;1.2414;
473998327719084;-0.6045;9.6810;1.1384;
473998347727813;-0.2191;9.7133;1.1528;
473998367738062;-0.5160;9.6666;0.9493;
473998387699725;-0.3148;9.6965;0.9996;
473998407679518;-0.4465;9.6391;1.0403;
473998427707453;-0.3998;9.6570;1.2929;
473998447721536;-0.3448;9.8102;1.2378;
473998467727616;-0.5710;9.7049;1.2258;
473998487694887;-0.2921;9.7073;1.1516;
473998507675984;-0.5698;9.6582;1.2534;
473998527666455;-0.1652;9.7851;1.1779;
473998547711306;-0.6333;9.5936;1.2534;
473998567723828;-0.1520;9.7731;1.0546;
473998587729243;-0.6141;9.6965;0.8380;
473998607739008;-0.3496;9.6546;1.0930;
473998627738390;-0.2705;9.6690;1.1121;
473998647736004;-0.5255;9.6486;1.2725;
473998667732081;-0.2693;9.7983;1.2091;
473998687744119;-0.5770;9.6786;1.3408;
473998707711676;-0.1975;9.8055;1.1241;
473998731218205;-0.5207;9.7037;1.3348;
473998749439162;-0.1712;9.7612;1.2917;
473998768557448;-0.6225;9.5900;1.0654;
473998788100822;-0.1532;9.7193;0.9373;
473998807876509;-0.5830;9.6151;0.9744;
473998827792775;-0.2993;9.7073;1.1193;
473998847731485;-0.4645;9.7408;1.0259;
473998867699494;-0.4477;9.6893;1.3324;
473998887697441;-0.2526;9.7480;1.3180;
473998907695260;-0.5746;9.6343;1.1779;
473998927682670;-0.1425;9.7624;0.9732;
473998947680510;-0.6608;9.5972;0.9972;
473998967690891;-0.1688;9.7061;1.0044;
473998987693735;-0.6309;9.6893;1.0463;
473999007692292;-0.2418;9.6678;1.0104;
473999027688936;-0.4298;9.6355;0.9541;
473999047678700;-0.3603;9.6762;1.1408;
473999067669236;-0.4106;9.7037;1.1504;
473999087718581;-0.4645;9.6917;1.3252;
473999107702600;-0.2813;9.8294;1.2845;
473999127724167;-0.6129;9.6762;1.1049;
473999147696604;-0.2179;9.6881;1.0918;
473999167721938;-0.4824;9.6151;0.9697;
473999187694663;-0.2885;9.6845;1.0235;
473999207681179;-0.5076;9.7001;1.0271;
473999227673168;-0.4046;9.7085;1.2186;
473999247669432;-0.5447;9.6235;0.8930;
473999267709410;-0.3735;9.6355;1.1756;
473999287729726;-0.3136;9.7205;1.1037;
473999307708711;-0.5124;9.6989;1.3072;
473999327688145;-0.2658;9.8031;1.2378;
473999347679151;-0.6393;9.6367;1.2677;
473999367717500;-0.1173;9.7671;1.0606;
473999387694694;-0.5866;9.6391;0.9218;
473999407683194;-0.3412;9.6426;1.0738;
473999427719079;-0.3244;9.7193;1.0163;
473999447736964;-0.5160;9.6965;1.2677;
473999467745176;-0.2825;9.7707;1.2558;
473999487750782;-0.2047;9.7037;1.0906;
473999507759854;-0.4920;9.7360;1.0487;
473999527751967;-0.4717;9.6833;1.3491;
473999547750542;-0.2035;9.7707;1.3539;
473999567746638;-0.6273;9.6450;1.1672;
473999587746089;-0.1664;9.7743;0.9720;
473999607709277;-0.6452;9.6067;1.0666;
473999627734947;-0.1891;9.7229;1.0690;
473999647747532;-0.5064;9.6738;0.9349;
473999667712479;-0.4070;9.6582;1.2857;
473999687697818;-0.3089;9.7420;1.2031;
473999707691045;-0.5447;9.6822;1.2043;
473999727679678;-0.2047;9.7983;1.0762;
473999747674263;-0.3891;9.6642;1.2342;
473999767670537;-0.2921;9.7695;1.2031;
473999787662674;-0.5782;9.6774;1.2294;
473999807680261;-0.2191;9.7528;1.1708;
473999827663555;-0.5495;9.6714;0.9708;
473999847652259;-0.2310;9.7217;0.9206;
473999867648977;-0.5399;9.5972;1.0379;
473999887657778;-0.2729;9.6786;1.1887;
473999907713775;-0.4345;9.7564;1.1313;
473999927741196;-0.5100;9.6989;1.2833;
473999947710484;-0.2502;9.7815;1.2258;
473999967687493;-0.6057;9.6642;1.0642;
473999987681132;-0.3172;9.7312;1.1899;
474000007713663;-0.5327;9.6235;1.1959;
474000027691275;-0.2143;9.7887;1.1181;
474000047720139;-0.5698;9.6774;1.0570;
474000067734571;-0.2849;9.6857;1.0534;
474000087702287;-0.4884;9.6881;0.9649;
474000107687164;-0.2897;9.7241;1.1013;
474000127721468;-0.4393;9.6391;1.1456;
474000147738350;-0.3711;9.6331;1.3336;
474000167708926;-0.3124;9.8258;1.2067;
474000187734656;-0.6357;9.7324;1.1205;
474000207702848;-0.1951;9.7444;1.1193;
474000227678790;-0.5112;9.6283;1.2797;
474000247709050;-0.2658;9.7707;1.1552;
474000267719738;-0.5782;9.6331;1.1791;
474000287728870;-0.1724;9.7624;1.0259;
474000307741782;-0.5950;9.6391;0.8847;
474000327742142;-0.3017;9.6486;1.0606;
474000347760784;-0.4238;9.7001;1.0403;
474000367755739;-0.4393;9.6977;1.2737;
474000387702582;-0.2801;9.7564;1.2342;
474000407719215;-0.5686;9.6307;1.2689;
474000427727320;-0.2107;9.7947;1.0786;
474000447728199;-0.5997;9.6750;0.9601;
474000467691927;-0.2741;9.6941;1.0008;
474000487711041;-0.5590;9.6666;1.1528;
474000507687271;-0.1269;9.7648;1.0331;
474000527726367;-0.5938;9.5648;1.1337;
474000547737069;-0.1425;9.7552;1.0666;
474000567733189;-0.5866;9.7468;0.9613;
474000587739595;-0.3903;9.7085;1.3108;
474000607740971;-0.2430;9.7133;1.2665;
474000627741544;-0.5650;9.6247;1.2629;
474000647739965;-0.2394;9.7851;1.0750;
474000667737830;-0.6213;9.6259;1.1013;
474000687700050;-0.2035;9.7348;0.9074;
474000707679507;-0.5938;9.5960;0.7697;
474000728471466;-0.2251;9.7181;1.2175;
474000748067080;-0.6165;9.6343;1.0259;
474000767861964;-0.1221;9.7755;0.9457;
474000787754367;-0.5459;9.6498;1.0534;
474000807716934;-0.2191;9.7205;1.1349;
474000827677429;-0.4477;9.7456;1.1552;
474000847670658;-0.5327;9.7193;1.3731;
474000867670926;-0.2981;9.7707;1.3372;
474000887669021;-0.5231;9.6726;1.3467;
474000907699473;-0.1879;9.7827;1.0511;
474000927693237;-0.6129;9.6295;1.1109;
474000947675889;-0.0575;9.7444;0.9301;
474000967669580;-0.5507;9.6917;0.8954;
474000987662406;-0.2885;9.7348;1.0918;
474001007661723;-0.6584;9.6558;1.0008;
474001027698901;-0.2897;9.7121;0.9421;
474001047713932;-0.5112;9.5744;1.0738;
474001067683698;-0.2658;9.6486;1.2857;
474001087670042;-0.4836;9.7839;1.1217;
474001107661618;-0.4585;9.7408;1.3623;
474001127722425;-0.2394;9.7851;1.4509;
474001147735059;-0.6608;9.6019;1.3443;
474001167739896;-0.1233;9.6977;1.0223;
474001187739487;-0.5842;9.6462;1.0044;
474001207698648;-0.2430;9.7695;1.0379;
474001227715344;-0.5495;9.6426;0.9301;
474001247727307;-0.1580;9.6905;1.0223;
474001267731731;-0.4034;9.7097;0.9266;
474001287729174;-0.3974;9.7133;1.0846;
474001307697857;-0.4513;9.6343;1.3503;
474001327730602;-0.4298;9.6702;1.5383;
474001347736167;-0.2921;9.8677;1.2234;
474001367697392;-0.5531;9.6367;1.0379;
474001387675831;-0.2682;9.6403;1.1959;
474001407666378;-0.5459;9.7420;0.8224;
474001427701036;-0.2526;9.7719;0.8248;
474001447716749;-0.5519;9.4930;0.9876;
474001467685279;-0.4453;9.5361;1.2785;
474001487709986;-0.5950;9.8007;0.7219;
474001507692532;-0.2873;9.5648;1.0594;
474001527727247;-0.1030;9.4559;1.0906;
474001547696489;-0.6345;9.6462;1.0104;
474001567674803;-0.1736;9.9551;0.7422;
474001587702844;-0.6955;9.7157;1.0427;
474001607717788;-0.1161;9.7971;1.0151;
474001627729125;-0.4788;9.6055;0.7865;
474001647734332;-0.3100;9.6271;1.0331;
474001667697340;-0.3496;9.7540;0.9744;
474001687682267;-0.5375;9.7935;1.1337;
474001707674115;-0.2885;9.8677;1.0714;
474001729091616;-0.2119;9.6007;1.1588;
474001748378270;-0.4465;9.6139;1.0774;
474001768033135;-0.6608;9.6678;1.1073;
474001787849683;-0.2023;9.8737;1.0630;
474001807749092;-0.7314;9.7073;1.0020;
474001827701085;-0.1879;9.7276;0.7195;
474001847669504;-0.6740;9.5660;0.8392;
474001867653272;-0.1389;9.7492;0.7458;
474001887645790;-0.6309;9.6738;0.9038;
474001907643895;-0.3232;9.7420;1.1349;
474001927653640;-0.3579;9.7516;1.0451;
474001947660647;-0.5914;9.6762;1.2522;
474001967662247;-0.5878;9.6558;1.0127;
474001987662432;-0.2167;9.7109;0.9828;
474002007669082;-0.5602;9.6917;1.1360;
474002027672541;-0.5028;9.7217;1.0068;
474002047706944;-0.1281;9.6474;0.8464;
474002067718876;-0.3508;9.5457;1.1145;
474002087725208;-0.6608;9.6989;0.7841;
474002107730277;-0.3771;9.8964;0.6560;
474002127734716;-0.3065;9.7504;0.8811;
474002147717608;-0.3986;9.1734;0.7111;
474002167727227;-0.2502;9.7971;0.9589;
474002187729595;-0.4465;10.6015;-1.2953;
474002207734048;-1.4976;9.4308;0.1341;
474002227732928;0.0156;10.6722;-0.1999;
474002247702099;-0.1305;9.3865;-1.3515;
474002267683992;-0.5435;9.0728;1.1899;
474002287674477;-1.8986;10.4471;1.2079;
474002307669739;0.0371;11.0756;-1.5766;
474002327667158;0.6524;9.3925;-2.1416;
474002347680502;-1.3144;8.6802;0.6632;
474002367662828;-1.5443;10.5824;0.7554;
474002387659318;-0.1341;11.1977;-0.8727;
474002407661852;0.1772;9.6235;-0.6321;
474002427662849;-0.9266;9.1375;-1.5598;
474002447666002;-1.3958;9.5696;-2.6372;
474002467664790;0.1844;9.9383;0.7338;
474002487670568;-0.7685;10.5297;0.3196;
474002507677169;-1.6245;10.2412;-0.0263;
474002527666681;-0.5339;10.1095;-0.6189;
474002547710937;-0.0910;10.1610;-1.0331;
474002567693796;-1.1504;9.7695;-1.1827;
474002587714571;-1.0918;10.0149;-0.5076;
474002607693863;-0.5902;10.5848;-1.7202;
474002627678239;-0.5495;9.9563;-0.7590;
474002647672793;-1.0116;10.0616;-0.0814;
474002667671397;-1.1648;10.8302;-0.2634;
474002687669949;-0.6009;10.4363;-0.1951;
474002707668302;-0.5088;10.5345;1.0247;
474002727668478;-0.7841;9.3254;-3.7637;
474002747671951;-0.5339;9.2823;-4.8662;
474002767665456;-0.1556;9.4164;-4.3491;
474002787680055;-0.5243;9.0644;-4.1180;
474002807677085;-0.5686;9.0656;-4.8339;
474002827658639;-0.3352;9.4810;-5.0003;
474002847660070;-0.4010;9.1375;-4.0749;
474002867661247;-0.5423;8.7987;-4.6675;
474002887662258;-0.4645;9.2249;-4.9141;
474002907668014;-0.6045;9.2296;-4.5155;
474002927671680;-0.7015;9.0202;-4.6268;
474002947665513;-0.4106;9.0884;-4.8111;
474002967662814;-0.7530;10.5931;-0.1221;
474002987711734;-0.8487;10.4040;-0.3998;
474003007690290;-0.3136;10.1155;-0.9469;
474003027683857;-0.5183;9.9168;-2.0901;
474003047674275;-0.8320;9.4906;-3.2884;
474003067668618;-0.4166;9.2141;-3.5015;
474003087659809;-0.0934;9.3218;-3.4860;
474003107661808;-0.3663;9.5181;-3.0287;
474003127666096;-0.4513;10.1143;-2.3990;
474003147665548;-0.4980;10.4016;-0.9194;
474003167677466;-0.1053;10.3394;-0.1724;
474003187672271;-0.3496;10.5692;-0.3663;
474003207662328;-0.5495;9.9252;-1.3455;
474003227664356;-0.0515;10.5022;-0.3891;
474003247663428;-0.5219;10.1335;-0.5674;
474003267663233;-0.3843;9.6893;-3.0562;
474003287664713;-0.2849;9.3111;-3.7445;
474003307664549;-0.0634;9.9455;-2.2158;
474003327692159;-0.3017;10.4567;0.1736;
474003347688522;-0.5878;10.4770;-0.5495;
474003367696703;-0.0060;9.7121;-3.0993;
474003387680832;-0.2382;9.1866;-3.5973;
474003407669397;-0.0611;9.8617;-1.7957;
474003427665506;-0.1688;10.2197;-0.7111;
474003447665311;-0.0575;10.0628;-2.0291;
474003467667886;-0.3280;9.7121;-0.5183;
474003487668154;-0.1664;9.4870;-1.9644;
474003507666308;0.0335;9.4296;-1.4473;
474003527663846;0.2442;9.8282;0.0096;
474003547669288;0.2155;9.8928;0.2729;
474003567668855;-0.3436;9.6307;-0.3711;
474003587667254;-0.0359;9.7576;-0.9888;
474003607660185;0.0084;9.8485;-1.2833;
474003627702054;0.5950;10.0820;-1.4066;
474003647682392;0.3388;9.9455;-0.8475;
474003667678792;-0.1113;9.7983;-0.7099;
474003687674377;0.1676;10.1981;-0.5219;
474003707671554;0.5555;9.8545;0.1867;
474003727668988;0.3484;8.8693;1.2725;
474003747662436;0.4908;9.3111;0.7673;
474003767719410;0.0994;9.9515;-0.2514;
474003787681705;0.3065;9.6666;0.7817;
474003807742237;0.9876;9.3434;2.0973;
474003827705214;-0.6045;8.8250;2.2625;
474003847673030;-0.0766;10.5740;-0.6907;
474003867656169;0.9158;10.7847;-0.6081;
474003887647450;-0.0503;8.4719;2.5977;
474003907644917;-0.0682;8.8286;2.8371;
474003927659516;-0.3376;11.5712;-0.9673;
474003947663912;0.2813;10.9188;-0.4322;
474003967666360;0.3735;7.9152;3.2190;
474003987671064;-0.6919;10.4040;-0.3675;
474004007661436;-0.1628;11.4191;-1.0570;
474004027661448;0.4417;9.1423;2.4828;
474004047661185;-0.1963;8.8370;2.6671;
474004067672458;-0.2634;10.3441;-0.6285;
474004087667594;0.2993;9.8833;-0.9948;
474004107697450;0.3795;8.5916;1.9441;
474004127682955;-0.2382;9.4068;1.3659;
474004147672189;-0.3926;10.7931;-0.9290;
474004167669325;0.0503;9.6151;0.1496;
474004187780028;0.6440;8.3641;2.6755;
474004207714648;0.2466;10.4926;0.2502;
474004227685285;-0.1030;10.8362;0.4968;
474004247670834;0.1353;9.2105;1.9716;
474004267668013;-0.2358;9.1195;1.4437;
474004287663083;0.1305;10.3537;-0.0012;
474004307685041;0.5471;9.7336;0.3484;
474004327675905;0.5997;9.1901;1.7430;
474004347675202;-0.2897;9.6905;1.1073;
474004367712408;-0.2562;10.6434;0.7925;
474004387696761;0.4501;10.0485;0.1305;
474004407677572;0.3412;9.6103;0.0754;
474004427671305;0.0359;9.3925;1.5455;
474004447667537;0.1233;9.8366;-0.1748;
474004467667268;0.3508;10.2915;0.1975;
474004487668018;0.0718;9.9132;-0.2143;
474004507669605;-0.1556;9.9958;0.8751;
474004527672456;0.4597;9.7121;0.6764;
474004547672747;0.5112;9.4822;-0.4369;
474004567671585;-0.0874;10.0221;1.0475;
474004587672273;-0.4106;10.0221;-0.4106;
474004607674848;0.5555;9.8641;-1.5143;
474004627669885;0.3879;9.5253;0.8200;
474004647663250;-0.1832;9.5648;0.4776;
474004667660817;-0.0958;9.8342;-1.9321;
474004687663735;0.2945;10.2053;-0.4022;
474004707662771;0.5662;9.4978;-1.1396;
474004733346654;0.2286;9.6283;-2.3008;
474004767660461;0.1520;9.9168;-0.9038;
474004787731653;1.0427;9.3338;-2.5845;
474004807739153;0.6740;9.7803;-0.3124;
474004827631730;-0.0060;10.2137;0.0383;
474004847644153;0.6919;9.6271;-2.9042;
474004867635615;1.3408;9.5002;-1.7095;
474004887685499;0.6069;10.0676;0.4190;
474004907641422;0.1915;9.8497;-2.3068;
474004927667499;0.5040;9.8078;-1.4389;
474004947661115;0.8380;9.7959;-0.3053;
474004967672807;0.6464;10.0987;-0.6979;
474004987672653;0.3352;9.6175;-1.2498;
474005007675961;0.5459;9.5768;0.0491;
474005027670191;0.9074;9.7336;-0.9840;
474005047686268;-0.0096;9.5265;0.5435;
474005067664922;-0.5950;9.4894;0.2179;
474005087663807;0.7721;10.0137;-0.7685;
474005107679961;0.4046;10.1478;0.3675;
474005127668922;-0.1245;10.1179;-0.1879;
474005147731307;-0.0215;9.6953;-1.1301;
474005167731653;0.3304;9.9000;-0.1365;
474005187675576;0.8056;10.3094;-0.3531;
474005207731345;0.4465;9.8485;-1.6412;
474005227734614;0.9960;9.9431;-1.5850;
474005247739999;1.2115;10.3669;-0.4824;
474005267726230;0.2047;10.0293;0.7015;
474005287732922;0.6261;9.7408;-0.8164;
474005307735730;1.1588;9.9120;-0.2610;
474005327734691;1.1803;10.3573;0.5698;
474005347732576;0.7877;9.7624;-0.9014;
474005367771614;0.9888;9.4655;-1.1468;
474005387731345;1.1708;9.6127;0.8152;
474005407734614;1.6688;9.9491;-0.4800;
474005427752960;1.2749;9.6355;-2.5690;
474005447737922;0.7338;9.4403;-0.0239;
474005467750691;1.4736;9.3470;-1.3084;
474005487724691;1.2282;9.8294;0.6548;
474005507723653;0.5710;9.6546;-1.0870;
474005527726230;1.0151;9.4535;-2.1153;
474005547737730;1.3240;9.9096;-0.1197;
474005567732153;1.4234;10.2065;0.5243;
474005587731153;1.5790;9.5624;-0.8727;
474005607730922;1.1480;9.9024;-2.0530;
474005627767460;1.2175;10.3130;-0.1628;
474005647652537;1.6352;10.3537;0.5088;
474005667733537;1.7992;9.7217;-0.3759;
474005687735114;1.2318;9.7528;-1.8783;
474005707731229;1.4425;10.1694;-1.3336;
474005727728229;1.6436;9.8809;-1.3384;
474005748971999;2.0291;9.5864;-0.1173;
474005767660191;1.2498;10.0509;0.7973;
474005787664883;1.8148;10.3729;0.0467;
474005807653345;2.1536;10.0461;-1.1971;
474005827651768;1.4820;9.2308;-0.9972;
474005847655114;0.8068;9.1399;0.5782;
474005867650999;1.9680;9.9180;1.1516;
474005887652883;2.6588;10.2352;0.0658;
474005907652614;2.0135;9.7971;-1.3874;
474005927676268;2.0099;9.6379;-1.3551;
474005947682191;2.1512;9.8857;-0.5112;
474005967687691;2.4840;10.1825;-1.2713;
474005987747229;1.7178;9.7552;-0.3699;
474006007675768;2.2110;9.9048;0.6931;
474006027690806;2.4636;10.1837;0.5902;
474006047654691;2.5881;10.1035;-0.3448;
474006067681883;2.0674;9.5062;-0.5519;
474006087679114;2.3427;9.6881;-0.9026;
474006107674998;3.0598;9.9982;-0.3555;
474006127679152;2.3080;9.6510;0.8667;
474006147674921;1.9082;9.3805;1.8316;
474006167754768;1.8747;9.7803;0.7769;
474006187756883;3.0574;10.3034;-0.6333;
474006207756960;2.5690;9.8114;0.9840;
474006227765344;2.5355;9.6618;0.1329;
474006247664383;2.7426;9.7229;-0.3436;
474006267754306;2.2553;9.9276;-0.5028;
474006287744883;2.1296;9.7252;-0.1030;
474006307750267;2.6193;9.4798;0.4130;
474006327668575;2.6001;9.3506;0.7195;
474006347751498;2.2410;9.4403;0.5770;
474006367763421;1.9213;9.7683;0.9613;
474006387747152;2.6588;10.3106;0.2059;
474006407757690;3.6452;10.2340;-0.9972;
474006427762114;2.6959;8.9950;-0.7111;
474006447663537;1.8675;8.8729;0.3256;
474006467691537;2.7916;10.9666;0.1544;
474006487747267;2.4828;10.2520;-0.3998;
474006507680306;2.9221;8.8873;0.6045;
474006527745767;3.4752;9.2356;1.2857;
474006548164844;3.2022;10.7667;1.1432;
474006567746806;2.2613;10.8481;1.1720;
474006587682575;2.3858;9.9431;1.1468;
474006607680460;3.4524;9.5708;0.7542;
474006627676960;3.0406;9.6678;0.8763;
474006647655575;2.5558;9.6582;1.1600;
474006667679229;3.0562;10.3406;0.3496;
474006687746113;3.5554;10.2735;-0.1760;
474006707680806;2.5055;9.4116;1.7154;
474006727747421;1.7597;9.8474;1.3156;
474006749577113;1.8926;10.4770;0.8056;
474006767673690;2.6013;10.2999;0.6644;
474006787643306;2.5091;10.4770;-0.1808;
474006807816190;1.6855;9.1315;1.2175;
474006827656113;2.2134;9.0058;1.1253;
474006847644806;4.3155;9.7731;0.2358;
474006867649613;4.0666;9.6426;0.5926;
474006887650959;1.5215;9.0896;-0.1640;
474006907653113;2.0901;8.8933;0.7015;
474006927653882;4.6040;9.5050;0.7410;
474006947720113;3.4812;10.1251;-0.0204;
474006967683229;1.1708;9.6067;0.1604;
474006987678575;2.9149;9.2225;0.6895;
474007007679536;3.7769;9.2548;0.4465;
474007027676728;3.3998;9.4008;-0.4729;
474007047691959;3.8499;9.4224;0.2825;
474007067728652;4.7980;9.8090;0.6847;
474007087676998;3.4285;10.1011;0.1448;
474007107677459;1.7873;9.6319;0.5698;
474007127669728;2.6839;9.3350;1.0343;
474007147661651;2.7940;9.8797;0.5183;
474007167688998;2.0470;9.9491;0.2203;
474007187685805;2.5199;9.4248;1.2043;
474007207674536;3.8283;9.5445;0.9134;
474007227655190;2.8766;9.8222;0.2466;
474007247659459;2.4864;9.5277;0.3567;
474007267868613;2.9892;9.3733;0.7506;
474007287665690;3.0825;9.8007;0.6668;
474007307662498;1.7561;9.7947;0.2861;
474007327655690;2.4517;9.4595;0.4142;
474007347685267;3.1663;9.3075;0.9637;
474007367731997;2.2709;9.8210;0.4393;
474007387745151;1.8926;9.9491;0.5734;
474007407652690;3.2777;9.6977;0.9409;
474007427651267;4.0713;9.4272;1.0654;
474007447731959;2.9640;9.5146;0.1018;
474007467734997;2.2494;9.6690;0.5602;
474007487670382;2.5857;9.7767;0.7709;
474007507749074;2.6025;9.7851;0.7075;
474007527743151;1.9668;9.9323;-0.1245;
474007547730267;2.3140;9.6618;0.0156;
474007567651382;2.5630;9.4679;0.9541;
474007587666920;2.1656;9.8581;0.0419;
474007607652728;1.7765;10.2376;-0.1844;
474007627668767;1.5562;9.7229;0.4046;
474007647655959;2.3822;9.5014;0.0994;
474007667685497;2.1225;9.8904;-0.5040;
474007687656382;1.8711;10.1119;-0.5902;
474007707741997;2.0051;9.4583;0.5279;
474007727651882;1.6173;9.7217;-0.6883;
474007747687228;1.9034;9.8701;-0.6404;
474007767681651;1.9932;9.7827;0.5088;
474007787667536;1.9201;10.1406;-0.8188;
474007807773497;1.6700;9.9910;-1.1875;
474007827658689;2.3834;9.3685;-0.5387;
474007847642497;2.5498;9.5277;-1.3635;
474007867648382;1.8974;9.9264;-1.8364;
474007887641805;1.1791;9.5553;-1.2641;
474007907662612;2.2278;9.3027;-1.7154;
474007927668074;2.7318;9.4355;-1.9034;
474007947661997;1.8627;9.7324;-1.5658;
474007967663612;1.1839;10.1179;-0.1999;
474007987664766;2.5031;10.0305;-0.4381;
474008007671420;2.6121;9.7743;0.0120;
474008027665920;1.4892;9.7959;-0.2765;
474008047664959;1.5538;10.1670;-1.5371;
474008067674805;2.3080;10.1119;-1.6927;
474008087679766;2.3978;9.7264;-1.3084;
474008107662343;1.6125;9.3087;-1.0379;
474008127674382;1.0211;9.7863;-2.2769;
474008147757535;2.0016;10.1382;-2.6240;
474008167677112;3.1903;9.3494;-1.0810;
474008187680189;2.0865;9.4727;-1.0199;
474008207685112;1.5155;10.1825;-2.5510;
474008227680766;2.0099;9.3075;-1.3455;
474008247669381;2.5989;9.5696;-1.1911;
474008267688266;2.2972;10.1359;-2.5426;
474008287742881;1.7849;10.0952;-2.2889;
474008307666458;1.9836;9.3889;-1.1947;
474008327671074;2.3727;9.8138;-0.9086;
474008347657458;1.4772;10.2687;-1.2115;
474008367655381;1.7945;10.1586;-1.0906;
474008387662381;1.9944;9.4104;-0.3256;
474008407661343;2.1548;9.6582;-0.6907;
474008427661189;1.5024;10.2173;-1.3755;
474008447651766;1.5024;10.0126;-0.6357;
474008467773343;2.6217;9.8521;-0.9637;
474008487753727;2.1057;10.0952;-1.8112;
474008507732920;1.7011;9.7169;-1.4904;
474008527744112;1.0235;9.5864;-1.1552;
474008547662727;1.8328;10.0975;-0.9840;
474008567676843;1.7789;10.1143;-0.9840;
474008587743266;1.7190;9.8497;-0.8021;
474008607737074;1.2414;9.7600;-0.8033;
474008627740612;1.3240;9.8665;-0.9589;
474008647672112;0.8859;9.9311;-0.7614;
474008667742381;1.1097;9.9707;-0.0539;
474008687674804;1.4509;9.8833;-1.3216;
474008707664535;0.6249;9.7468;-0.5950;
474008727731689;0.8787;9.9695;-0.8296;
474008750804304;0.8260;10.0784;-1.4401;
474008767654496;0.6835;9.7935;-1.6245;
474008787654035;0.5890;9.5241;-0.6536;
474008807646766;0.2825;9.4798;-0.9804;
474008827643343;0.8954;9.9036;-1.8304;
474008847634496;0.7829;9.6031;-1.0343;
474008867643996;0.3316;9.7552;-0.7063;
474008887643150;0.3531;9.8043;-0.9816;
474008907638150;0.6345;9.8881;-1.3467;
474008927648419;0.5650;9.4272;-0.2263;
474008947658343;0.3065;10.2999;-1.6556;
474008967650804;0.0587;10.1969;-1.0714;
474008987656689;0.6859;9.4164;-0.5148;
474009007650919;0.5435;9.4990;-1.1779;
474009027675919;0.2969;10.5225;-1.1887;
474009047665958;-0.2430;10.2795;-1.7334;
474009067661342;-0.4226;9.7205;-1.7885;
474009087682612;1.0523;9.6893;-0.6500;
474009107732689;0.8068;10.0401;-1.3707;
474009127666342;0.0790;9.9455;-1.6819;
474009147664727;0.0670;9.9695;-0.2203;
474009167666804;0.4441;10.1071;-1.4162;
474009187678073;0.5160;9.7983;-2.0901;
474009207719381;-0.3184;9.6055;-1.3479;
474009227715842;-0.3436;9.6917;-0.5483;
474009247668688;0.3160;10.1478;-0.5064;
474009267717035;0.0766;9.9982;-1.0678;
474009287669073;-0.2298;9.7600;-0.9373;
474009307762727;-0.8404;9.5469;-1.7777;
474009327769111;0.1496;9.9300;-0.9816;
474009347660111;0.1041;9.8186;-1.9776;
474009367670111;0.0826;9.7468;-1.2007;
474009387663034;-0.7135;9.4822;-0.2921;
474009407652804;-1.2474;10.1359;-1.3060;
474009427652304;0.5567;10.5381;-1.1301;
474009447658727;-0.3448;9.5122;-0.4310;
474009467687342;-1.6328;9.5373;-1.1576;
474009487690611;-0.3508;9.8330;-1.1468;
474009507671765;0.2107;9.7695;-1.6005;
474009527734957;-0.9134;9.6199;-1.3671;
474009547662496;-0.4369;10.0856;-1.4317;
474009567667573;-0.1041;10.1694;-2.0518;
474009587669342;-0.2215;9.5684;-0.0048;
474009607668727;-0.5339;9.5349;0.3340;
474009627667188;-0.6572;10.8649;-0.7530;
474009647661650;0.1963;10.7057;-2.3990;
474009667665611;-0.0359;9.8869;-1.2402;
474009687675304;-0.0587;9.6510;-0.4393;
474009707677111;-0.6177;10.7787;-2.0674;
474009727658073;0.3807;10.2987;0.1820;
474009747657919;-1.0534;8.7939;1.5431;
474009767940842;0.7003;10.1873;-0.4022;
474009787651034;-0.1197;11.0887;-1.6915;
474009807651380;-0.1425;9.9850;-0.3280;
474009827651342;-0.4932;9.2273;-0.0060;
474009847651688;0.6859;10.0736;-0.4908;
474009867636573;0.0563;10.8769;-1.5095;
474009887669842;-0.8487;9.9431;-0.7697;
474009907666380;-0.2705;9.2572;-0.4262;
474009927656880;0.5567;9.7312;-0.6117;
474009947658149;-0.1149;10.3585;-1.7980;
474009967671265;-0.6033;9.5577;-0.9266;
474009987664803;0.4154;9.2524;-0.7901;
474010007657957;0.7123;9.8450;-1.4198;
474010027663111;-0.1844;10.2101;-1.9980;
474010047665649;-0.7051;9.9431;-0.9481;
474010067667842;0.1820;9.2979;-0.7350;
474010087677534;0.0383;9.9156;-0.9912;
474010107669572;-0.4441;10.6769;-1.1947;
474010127665111;-0.0694;10.0497;-0.6033;
474010147661380;0.5950;9.5816;-0.7889;
474010167667688;0.4896;9.8258;-1.2605;
474010187667188;-0.5183;10.0389;-1.0271;
474010207684803;0.3352;9.6103;-0.6464;
474010227674880;0.3567;9.5337;-0.6524;
474010247684111;-0.4190;9.9551;-0.2634;
474010267762572;-0.5124;9.9120;-0.9673;
474010287681342;0.6369;9.6965;-0.4992;
474010307704303;0.1712;9.8246;0.1401;
474010327726418;0.1018;10.0317;-1.2426;
474010347673918;0.2825;10.2424;-0.8583;
474010367720226;0.4896;9.2237;0.6285;
474010387934841;0.8763;9.0860;1.4365;
474010407718457;0.5435;9.9551;1.3767;
474010427675457;0.5638;9.8940;0.6608;
474010447758880;1.1001;9.5062;0.5794;
474010467685111;0.9050;9.3003;2.2326;
474010487766341;0.2394;10.2352;1.5275;
474010507676726;-0.2682;11.0014;1.0870;
474010527679149;0.2083;10.2065;1.1372;
474010547746380;0.4142;9.5732;1.9932;
474010567747764;0.5758;9.6810;1.5586;
474010587683303;0.9242;9.9671;1.1229;
474010607759264;1.0211;9.7205;0.7111;
474010627683187;-0.1580;9.7312;1.3862;
474010647753264;-0.3280;10.4040;0.9541;
474010667673457;0.8128;10.5249;0.5878;
474010687766457;0.4106;9.0010;0.5004;
474010707683495;0.0587;9.3613;1.2438;
474010727671803;0.0670;10.2795;0.6919;
474010747649995;0.9134;10.3657;1.3779;
474010767889495;0.2562;9.6666;1.2366;
474010787653764;-0.2155;9.2009;1.2019;
474010807656918;0.1113;9.5397;0.9385;
474010827642995;0.4106;9.7408;0.9026;
474010847640995;-0.2550;9.4930;1.2402;
474010867680457;-0.4908;9.4751;1.6316;
474010887684995;-0.2107;10.0952;0.4872;
474010907689149;0.6141;9.3913;1.2294;
474010927687533;0.5315;8.9687;1.8699;
474010947678149;-0.5076;10.1682;0.4046;
474010967671380;-0.1856;9.7887;0.3328;
474010987676187;0.3340;9.6666;0.8691;
474011007681418;0.0120;9.7073;1.8232;
474011027680226;-0.4465;10.0126;0.5650;
474011047683226;-0.1305;9.7959;0.1927;
474011067676956;0.4058;9.3518;-0.0802;
474011087680341;0.7626;9.7540;0.2131;
474011107681341;-0.2478;9.7444;0.4142;
474011127689379;-0.6800;9.5397;0.1053;
474011147672033;0.6812;9.5565;0.1987;
474011167675879;0.5148;9.6450;-0.0407;
474011187676572;0.0563;9.4822;1.1827;
474011207682879;0.3400;9.5804;0.7973;
474011227682110;0.1233;10.3094;0.7051;
474011247682956;-0.3436;10.7057;0.3208;
474011267684495;-0.9026;10.1646;0.5830;
474011287680187;0.2059;9.2692;0.2586;
474011307754033;0.4585;9.2811;0.7290;
474011327755572;-0.2897;9.8282;0.8176;
474011347756033;-0.1293;10.7248;-0.2502;
474011367753341;0.4573;9.8785;-0.3615;
474011387655841;0.2670;8.8585;0.6871;
474011407745072;0.0910;9.2919;0.5363;
474011427731648;-0.5830;10.4806;-0.2526;
474011447733802;0.1018;10.0640;0.6009;
474011467734379;-0.1281;9.7528;1.3443;
474011487729302;-1.0403;10.1490;0.5614;
474011507736687;-0.1891;10.0090;0.6189;
474011527654764;0.8894;10.0042;1.1744;
474011547654071;0.1772;10.1418;0.5686;
474011567668264;-1.1444;10.4112;-0.0491;
474011587728994;-0.4190;9.5457;0.5555;
474011607748264;0.5662;9.3075;0.2813;
474011627657841;-0.2885;9.9204;-0.8128;
474011647734994;-0.6285;9.9778;-1.4557;
474011667651417;-0.0814;8.9878;-0.4322;
474011687730610;-0.0599;10.2161;0.5112;
474011707761225;-0.9936;10.8876;-0.6321;
474011727672033;-0.4549;9.5840;0.2813;
474011749057610;0.3112;8.8418;0.7494;
474011767676956;-0.2849;9.9168;-0.0204;
474011787724917;-0.8260;10.4818;-1.5095;
474011807646533;-0.4669;9.2668;-0.4238;
474011827659187;0.4094;8.9567;-0.0982;
474011847642110;0.4345;10.3082;-1.2318;
474011867667879;-1.0451;10.2687;-1.7681;
474011887738456;-1.3096;9.2775;0.3328;
474011907684417;0.6907;9.5600;0.9325;
474011927693148;-1.0822;10.3525;-1.1372;
474011947676494;-1.1265;9.2548;-0.2682;
474011967684725;0.4968;9.2739;0.3388;
474011987666225;0.7901;10.2723;-2.4924;
474012007676610;-0.9517;9.9168;-1.8878;
474012027684225;-0.6644;9.0106;1.2270;
474012047683225;0.1221;10.0245;1.2127;
474012067684994;-1.2234;10.4770;-3.0574;
474012087716071;-0.0084;9.2524;-0.6632;
474012107692648;0.0742;9.0070;1.7382;
474012127693109;-0.1125;10.5070;-0.9697;
474012147679840;-1.0151;10.8984;-2.1201;
474012167675609;0.7817;8.8238;-0.2179;
474012187676109;-0.2801;9.9910;0.0946;
474012207744379;-0.5519;11.0241;-0.6512;
474012227680609;0.0994;9.6594;0.6620;
474012247676456;-0.9002;8.8873;-0.5315;
474012267673648;-0.1748;9.4774;0.5878;
474012287672148;0.2753;10.9439;-1.0259;
474012307651379;-0.1484;10.9475;-1.3671;
474012327649955;-0.0503;9.4846;1.2222;
474012347680571;-1.3228;9.6522;2.7509;
474012367681032;-0.9086;11.1797;-1.3048;
474012387665802;1.0942;10.2280;-0.2789;
474012407663994;0.3795;8.9495;0.5938;
474012427744994;-0.5974;10.1718;-2.0411;
474012447677109;-0.0192;10.0054;0.1065;
474012467759609;0.8068;9.0345;-1.3731;
474012487689648;-0.1173;9.2548;-3.2836;
474012507738801;-1.8196;5.7640;-1.1803;
474012527680648;-0.6596;7.8123;2.7521;
474012547677648;0.5459;12.7527;-2.8982;
474012567754494;0.3089;12.5085;-2.2589;
474012587673994;-2.2051;6.8546;0.2777;
474012607739494;1.0534;6.4955;3.7888;
474012627685455;1.9106;11.8010;-1.7298;
474012647753532;-1.4281;13.0065;-2.8036;
474012667690609;-2.3535;9.3805;3.2070;
474012687753032;0.8727;8.1654;0.4393;
474012707672724;0.4202;10.3860;-2.0865;
474012727783071;0.2035;10.1478;0.1496;
474012747722417;-1.1576;12.3541;-2.3762;
474012767665647;0.8116;9.4056;-0.8643;
474012787686032;-0.6297;8.2157;1.2605;
474012807669647;-0.7901;11.1869;-2.8922;
474012827660378;-0.2550;11.9842;-2.4134;
474012847647878;0.3819;8.9567;1.7286;
474012867637224;-0.2717;8.7233;1.9609;
474012887699032;-0.9481;11.5245;-3.2262;
474012907664801;-0.1221;10.9415;-1.4305;
474012927689609;0.4525;8.4479;2.1656;
474012947660570;-1.3623;10.6111;-2.9999;
474012967656763;-1.5071;10.6003;-1.2414;
474012987663147;0.6285;9.2416;1.8016;
474013007659993;0.4681;9.8713;0.5160;
474013027667186;-1.0666;10.5764;-1.8579;
474013047667532;-1.1971;9.4451;-0.0527;
474013067659109;-0.4082;9.0776;1.1313;
474013087665186;-0.0299;10.3214;-0.8464;
474013107663724;-1.3635;10.0592;-1.5706;
474013127684763;-1.4305;8.8190;-0.2143;
474013147659416;-0.4178;9.1231;-0.8847;
474013167651032;-0.1784;9.7300;-0.3376;
474013187656993;-1.5371;9.8869;0.1281;
474013207660032;-0.9625;9.7588;-0.0383;
474013227678070;-0.5004;9.7360;0.5866;
474013247685263;-0.8739;9.8055;-0.5267;
474013267667070;-1.3420;9.7695;-0.4477;
474013287679762;-0.7781;9.3673;0.6991;
474013307682416;-0.1820;9.7731;0.2933;
474013327692262;-1.1636;10.2735;-1.3455;
474013347651224;-1.2390;10.0257;0.1556;
474013367668455;-1.2007;9.2632;1.6077;
474013387664339;0.1879;10.1562;-0.1305;
474013407687801;-0.8260;10.1861;-1.8938;
474013427745224;-1.2139;9.2045;1.2007;
474013447685185;-0.9170;10.0963;-0.4812;
474013467733416;-0.3100;10.5512;-0.7242;
474013487667262;-0.4633;9.5648;0.0766;
474013507658262;-1.3108;9.0441;-0.0347;
474013527667224;-0.6668;9.8677;-0.6452;
474013547679762;0.0060;10.1263;0.3615;
474013567662378;-0.8547;9.6355;-0.2753;
474013587661724;-1.5407;9.3589;-0.9182;
474013607656916;-1.0882;9.3374;-0.5662;
474013627731301;0.1209;10.1730;0.2981;
474013647667147;-0.7159;9.6726;-0.5363;
474013667668878;-1.1193;9.0860;-0.3304;
474013687668570;-0.5124;9.7300;-1.5227;
474013707662570;-0.7183;10.0126;-0.7542;
474013727665416;-0.9278;9.1818;0.6740;
474013747699108;-1.1708;9.4918;0.1460;
474013767742224;-0.6261;10.1502;-0.7973;
474013787730185;-0.5124;9.5445;0.4082;
474013807655531;-0.9421;9.1782;-0.2885;
474013827660339;-1.0678;10.0736;-1.6137;
474013847652993;-0.1520;10.4040;-0.3412;
474013867677454;-0.5890;9.6893;0.4908;
474013887675839;-0.6548;9.6414;-0.5483;
474013907728031;-0.8428;9.7707;-0.2849;
474013927675185;-0.4381;10.1730;0.2298;
474013947693493;-0.4226;9.9994;0.3567;
474013967661993;-0.8068;9.6462;-0.8811;
474013987653685;-0.9349;9.9455;-0.6081;
474014007655070;0.0910;9.7648;-0.4022;
474014027664954;0.0503;9.4547;-0.6608;
474014047670531;-1.3623;10.1933;-1.2653;
474014067670570;-0.8128;10.1921;-1.6975;
474014087732416;0.0407;9.0022;-0.2873;
474014107721570;0.1484;9.3362;0.5279;
474014127718377;-0.8320;9.8342;-0.3256;
474014147643108;-0.2837;9.5265;0.2622;
474014167662723;0.1353;9.2201;1.3527;
474014187661031;-0.4334;10.1083;0.6333;
474014207656262;0.1975;9.7121;0.6572;
474014227668531;0.2502;8.8765;1.5000;
474014247677185;-0.8583;9.0106;2.1117;
474014267662339;-0.6536;10.7823;1.2558;
474014287668146;0.3160;10.7428;0.4633;
474014307665185;0.2095;9.2249;1.6987;
474014327665762;-0.6369;8.6383;2.3774;
474014347680377;-0.1293;9.8773;0.6512;
474014367663762;0.3460;10.2604;0.7302;
474014387683339;0.0096;9.6187;2.3379;
474014407730646;-1.0104;9.8605;0.6416;
474014427685339;0.3089;9.9479;0.5986;
474014447750262;0.4513;9.6355;1.7633;
474014467669877;-0.3771;9.0740;1.5802;
474014487670915;-0.6728;9.4212;1.2629;
474014507658762;-0.3723;10.3477;0.2215;
474014527766069;0.2370;9.9563;0.1508;
474014547663339;0.4322;9.1746;2.1129;
474014567643031;-0.9888;9.2332;2.1153;
474014587672185;-0.5100;9.9407;0.2286;
474014607642415;0.7111;9.4643;0.7901;
474014627665069;-0.0611;9.3996;1.1241;
474014647651146;-1.4425;9.7396;0.4417;
474014667660261;0.6345;10.0090;1.0918;
474014687662954;1.0331;9.6067;0.9589;
474014707676954;-1.2426;9.4128;1.9273;
474014727712915;-0.4764;9.5612;1.9788;
474014749586185;1.0163;10.1347;0.4166;
474014767660877;0.7159;9.6259;0.5339;
474014787710915;-1.0570;9.1363;2.5438;
474014807715108;-0.5195;9.7636;2.2901;
474014827664146;1.4545;10.2077;1.6700;
474014847681761;0.4717;9.2608;3.0897;
474014867727569;-0.7242;9.6893;1.2342;
474014887744107;-0.3938;10.4519;0.5471;
474014907739069;0.9050;10.4040;2.0004;
474014927739607;-0.2382;9.7073;1.2725;
474014947666569;-0.6608;9.3733;1.9237;
474014967693454;0.0215;10.3633;0.4681;
474014987660607;0.3472;9.2476;1.3575;
474015007661569;-0.0850;8.4767;2.9712;
474015027660184;-0.5950;10.0796;1.3635;
474015047663992;0.0287;10.9870;-1.2594;
474015067666146;0.6381;9.1542;1.0714;
474015087682569;-0.2753;8.4575;3.4393;
474015107661838;-0.7566;10.5872;0.4657;
474015127671915;-0.3627;11.0816;0.3651;
474015147660377;0.1879;9.0704;2.8084;
474015167667569;-0.2442;9.4212;0.6967;
474015187663530;0.0012;10.0461;0.5351;
474015207663569;0.0814;9.8593;1.4892;
474015227660530;-0.3232;9.5433;1.1899;
474015247672761;-0.5327;9.9862;0.3244;
474015267678223;-0.0048;9.4978;1.0882;
474015287671992;0.7350;9.0477;1.7394;
474015307745261;-0.1867;9.4391;0.7386;
474015327677030;-0.4298;10.4303;0.6369;
474015347673607;-0.1185;9.8067;1.5502;
474015367656069;0.1688;9.5170;1.7801;
474015387675799;-0.4334;10.0509;0.8823;
474015407677107;0.2179;9.1470;2.0853;
474015427675184;0.4022;9.5660;2.2230;
474015447679799;-0.3591;10.4686;0.3831;
474015467674184;-0.4872;10.0437;1.4234;
474015487667607;0.0239;9.0812;2.4014;
474015507670299;0.4046;9.9323;0.6416;
474015527666992;-0.0084;10.1813;1.0451;
474015547662184;-0.1221;9.3589;2.0135;
474015567770145;0.1939;9.5936;1.0511;
474015587728645;0.3807;10.2304;0.5938;
474015607663530;-0.1089;9.6702;0.0180;
474015627665722;-0.2358;9.6007;0.6189;
474015647659645;0.1496;10.0856;0.1161;
474015667667222;0.1365;9.6043;2.3056;
474015687671722;-0.3388;9.7420;0.9325;
474015707663338;0.2358;9.9623;0.8320;
474015727656376;0.3304;9.0656;1.5933;
474015747671222;0.3017;9.1482;1.5048;
474015767682684;-0.5124;9.8090;0.7745;
474015787649876;0.2322;10.2915;0.6907;
474015807648415;0.3879;10.1215;-0.2346;
474015827656915;-0.4357;9.2524;1.0798;
474015847678607;-0.0946;8.9352;1.0546;
474015867667838;0.7841;9.5828;0.1269;
474015887745145;0.8511;9.9216;0.7051;
474015907744107;-0.6572;9.8294;1.5000;
474015927752953;0.0814;10.2041;1.4521;
474015947754991;0.9050;10.0808;0.6069;
474015967678914;0.2741;9.6702;1.1049;
474015987707568;-0.5758;9.3302;1.8986;
474016007676684;0.1341;9.7588;1.1241;
474016027673953;0.4860;10.1299;0.4980;
474016047676376;0.1652;10.0437;1.2163;
474016067677414;0.0682;9.8366;0.9996;
474016087682414;0.1365;9.5265;0.9026;
474016107683337;0.5578;9.6690;0.6680;
474016127690607;0.3735;9.6187;1.7573;
474016147681607;-0.2334;10.5393;0.4525;
474016167684145;0.4633;10.1119;0.6752;
474016187701914;0.6404;9.3506;1.1313;
474016207681260;-0.0551;9.4224;1.0271;
474016227676991;-0.0431;10.0281;0.9002;
474016247676760;0.3831;9.9132;1.3539;
474016267671876;-0.2131;9.6247;0.5830;
474016287680914;-0.5351;9.7001;0.1915;
474016307674222;0.0778;9.5553;0.9014;
474016327672260;0.2610;9.5996;0.6009;
474016347674645;0.0012;9.5397;1.2031;
474016367676337;-0.7099;9.6295;2.0315;
474016387664568;-0.2478;9.8067;1.1001;
474016407682029;0.3663;9.7348;1.4724;
474016427789953;-0.0802;9.4248;1.2498;
474016447855222;0.0467;9.2715;0.4741;
474016467673722;0.2933;9.2799;0.7865;
474016487656952;0.2430;9.9695;0.6393;
474016507670299;-0.0778;10.3058;0.2298;
474016527665683;0.2286;9.7683;0.2693;
474016547679260;0.3867;9.3075;1.1372;
474016567703645;0.4681;9.4451;0.8835;
474016587665260;0.5626;9.9192;0.2538;
474016607649183;-0.0718;10.2113;1.0259;
474016627639722;-0.4884;10.0975;1.8352;
474016647679260;0.1448;9.9623;0.5052;
474016667682375;0.4357;9.5780;0.1006;
474016687669068;-0.0431;9.5505;0.7649;
474016707654491;-0.1329;10.0796;1.5419;
474016727672491;-0.2837;10.5309;0.3831;
474016747657760;0.0503;9.9778;1.4784;
474016768085183;0.1269;9.3805;1.5538;
474016787651645;0.0862;9.6558;0.5279;
474016807652029;0.1065;9.8354;1.2989;
474016827639798;0.1365;10.0485;1.7549;
474016847652683;-0.2358;10.1873;1.8806;
474016867669029;-0.5854;10.2316;1.4317;
474016887675952;-0.1221;9.7229;1.5431;
474016907665452;0.1113;9.2296;0.5040;
474016927660375;-0.0563;9.6426;0.6404;
474016947680952;-0.3615;9.9491;-0.0347;
474016967670683;0.0192;9.8629;0.2514;
474016987659644;0.2849;9.4559;0.6416;
474017007674568;-0.3603;9.5122;-0.4226;
474017027661298;-0.4501;9.4379;0.0646;
474017047655029;0.2849;9.4320;0.5878;
474017067672991;-0.0036;9.9084;-0.2322;
474017087672644;-0.9685;10.1071;0.5207;
474017107678029;-0.6333;9.5505;0.9828;
474017127711183;0.6656;9.4834;-0.0239;
474017147663952;-0.5100;9.4595;0.9290;
474017167674683;-0.8583;10.0054;1.5407;
474017187670106;0.0156;10.3058;0.8535;
474017207659875;0.0970;10.1275;1.4796;
474017227712990;-0.4525;9.5289;0.8859;
474017247682490;-0.6273;9.4439;0.0347;
474017267673760;0.5519;9.7384;0.5710;
474017287655913;0.4166;10.4052;0.1496;
474017307670221;-0.5794;10.0712;0.8547;
474017327642221;-0.7470;9.5193;0.8847;
474017347668183;0.3807;9.6953;0.0886;
474017367666952;0.4764;9.8809;0.4405;
474017387678798;-0.3651;9.6319;1.9118;
474017407655183;0.1221;10.1107;0.0730;
474017427676067;0.5124;10.0437;0.2622;
474017447676798;-0.3879;9.4547;0.4741;
474017467676529;-0.5926;9.2907;-0.1784;
474017487674913;0.4070;9.2009;-0.0826;
474017507678183;0.3376;9.5517;0.6297;
474017527682875;-0.5830;10.2951;0.0395;
474017547679798;-0.4693;10.1131;0.2406;
474017567674298;0.7949;8.9878;0.8607;
474017587684759;-0.3747;8.9316;0.4034;
474017607678221;-0.3771;9.7803;-0.5602;
474017627677375;0.1365;10.3034;-0.7027;
474017647675375;-0.1113;9.2991;2.3200;
474017667673836;-0.6704;10.2340;0.8176;
474017687674913;0.2789;10.4471;-0.4896;
474017707679298;0.2274;9.2763;2.5187;
474017727729490;-0.8009;9.7085;2.3547;
474017747767952;-0.4525;10.8002;-0.6788;
474017768383029;0.2215;10.3489;0.1018;
474017787660452;-0.0862;8.8166;1.9561;
474017807656182;-0.8021;9.4774;0.4477;
474017827659721;0.1125;10.3633;-0.4441;
474017847651375;0.4369;10.1107;0.7781;
474017867663105;-0.6189;9.3601;1.4365;
474017887661221;-1.0977;9.8210;0.6105;
474017907662682;0.8021;9.6115;-0.2789;
474017927662336;-0.1377;8.8861;0.9768;
474017947669798;-0.9912;9.4296;0.7793;
474017967657798;-0.6608;10.3992;-0.5662;
474017987669067;0.8260;10.0341;0.2490;
474018007676336;-0.0886;8.7867;0.2478;
474018027663913;-1.1145;9.0130;0.3723;
474018047663990;-0.2430;9.6510;0.1365;
474018067663605;0.7709;9.7408;-0.2274;
474018087675067;-0.4908;9.2835;0.3974;
474018107667605;-0.6009;9.4583;0.7781;
474018127664336;-0.1101;9.9204;0.1041;
474018147659682;0.8799;10.1694;1.5658;
474018167661644;0.2610;10.1801;1.9178;
474018187669836;-0.2167;10.3453;0.4896;
474018207685913;-0.2071;10.1370;0.8823;
474018227662682;-0.6416;9.0465;2.1272;
474018247661990;0.0718;9.9144;1.1708;
474018267661682;0.6656;11.0804;0.3974;
474018287665951;-0.1448;10.3908;0.3891;
474018307680567;0.1724;9.7564;2.2051;
474018327661067;0.6393;10.6614;-0.1987;
474018347664682;1.1660;10.8469;-0.8475;
474018367661759;-1.7561;7.9703;1.8076;
474018387662567;-1.1384;8.1068;1.4748;
474018407716605;1.3108;11.6346;-1.0918;
474018427658105;-0.3567;9.6271;1.4102;
474018447652297;-1.1504;8.4001;2.5450;
474018467661336;0.0072;10.0018;0.6117;
474018487661066;1.1468;10.6805;-0.0539;
474018507667720;-0.5291;8.7783;1.6293;
474018527663797;-1.3443;8.8585;2.0267;
474018547672066;-0.0204;10.8014;-0.0048;
474018567668259;0.9589;10.1239;0.1257;
474018587728643;-0.2107;8.5198;1.5335;
474018607653143;-0.8799;9.4200;1.4437;
474018627654489;-0.2622;11.0947;-0.9469;
474018647657297;0.1197;9.4978;0.2119;
474018667669220;-0.1939;8.4479;1.1325;
474018687662605;-0.4417;9.6474;-0.8033;
474018707663912;0.5076;10.6566;-0.8176;
474018727661797;-0.0215;10.0952;-0.3017;
474018747684989;-0.4693;9.5684;0.8799;
474018767932951;-0.0994;10.0568;-0.0072;
474018788918489;0.4525;10.4663;0.2981;
474018807666335;0.4034;10.0425;1.4593;
474018827648489;0.0802;10.1251;0.9457;
474018847647489;-0.5902;10.4100;-0.0611;
474018867642143;-0.5351;10.1813;0.7626;
474018887642066;0.5291;10.1382;-1.0858;
474018907663451;0.0814;9.5792;-0.3783;
474018927674066;-0.4489;9.8222;0.3615;
474018947662066;-0.2203;10.5692;-0.6428;
474018967663758;-0.5351;10.4160;-0.3759;
474018987671528;0.1856;9.5888;0.7470;
474019007968066;-0.2741;9.7516;0.8882;
474019027675874;0.1844;10.3370;1.0367;
474019047653605;-0.0156;10.7464;0.4848;
474019067662874;-0.2586;9.7013;1.7502;
474019087661028;-0.7075;9.7839;1.2007;
474019107676643;-0.4489;10.0281;0.1975;
474019127659451;0.0096;9.5517;0.1784;
474019147652066;0.3998;10.0317;0.1712;
474019167672104;-0.5854;10.2723;-0.1975;
474019187668412;-0.4465;9.8067;1.6508;
474019207680066;-0.0239;9.2931;1.1349;
474019227657335;0.2957;9.6989;1.1863;
474019247649681;-0.1125;9.6498;0.7602;
474019267660412;-0.0287;9.9934;1.2438;
474019287661835;0.0419;9.6977;1.4593;
474019307672258;0.6249;9.4523;-0.2131;
474019327672720;0.0922;8.7568;0.6668;
474019347746643;-0.1915;8.7305;1.8890;
474019367664604;0.2921;9.8749;0.8631;
474019387665874;0.3579;10.6638;1.1863;
474019407697143;-0.5866;9.4463;2.6875;
474019427664066;0.1568;8.9555;0.5878;
474019447647835;0.8571;9.4236;0.9996;
474019467662181;0.1317;9.5469;1.7310;
474019487661527;-0.8954;9.9910;2.0351;
474019507669604;0.1460;10.4411;2.1021;
474019527667258;1.0690;9.5948;1.1097;
474019547667143;-0.1233;8.4467;2.3571;
474019567656373;-0.3627;9.8450;0.6620;
474019587729796;0.3771;10.7368;0.6393;
474019607670489;0.3591;9.5648;1.1851;
474019627688950;-0.5016;9.0489;1.1648;
474019647725719;0.2765;10.1311;0.1532;
474019667662412;0.3759;9.7695;0.4573;
474019687679258;-0.6201;9.3063;2.4157;
474019707731412;0.1472;9.8330;1.7478;
474019727663258;0.8715;10.1706;0.1006;
474019752489566;0.1760;9.2296;1.7538;
474019787660450;0.3639;10.6147;-0.1377;
474019807660489;0.3256;10.7631;-0.0072;
474019829421373;0.1999;9.1698;1.7813;
474019847648027;0.0263;8.8490;1.6867;
474019867649950;0.6536;10.2951;-0.0994;
474019887648296;0.1053;9.9120;2.4517;
474019907648258;-0.4166;9.7731;1.9525;
474019927648681;0.7099;10.6973;-0.2921;
474019947652681;0.9852;9.8426;1.4581;
474019967641796;-0.5555;9.0273;2.9221;
474019987643142;-0.8523;10.1370;0.7362;
474020007646450;0.0862;11.0935;0.1508;
474020027782142;0.7614;10.2089;1.4174;
474020047677296;0.4178;9.0345;1.8435;
474020067660604;-0.5698;9.5888;1.8280;
474020087677604;0.5519;10.5680;0.9409;
474020107677719;0.4908;10.0712;1.8519;
474020127686911;-0.2789;9.7803;1.6951;
474020147666988;0.4022;9.6031;1.0235;
474020167668181;0.7338;9.3051;1.1169;
474020187687142;0.6835;9.6355;1.3012;
474020207755373;-0.2837;9.6654;1.6065;
474020227689873;-0.2298;9.7707;1.1229;
474020247679719;0.4214;9.7504;1.6855;
474020267750219;0.7242;9.3577;1.7729;
474020287678988;-0.3759;8.9388;2.0506;
474020307668027;-0.0144;9.6319;0.2993;
474020327660719;0.4525;10.7009;-0.2933;
474020347675488;-0.2861;9.7552;1.6652;
474020367672719;-0.7123;8.3953;2.7366;
474020387675796;-0.5279;11.6801;-1.8830;
474020407768411;-0.5351;9.8174;1.1325;
474020427772334;-0.1568;7.7692;5.0147;
474020447683296;0.4848;10.0054;1.7573;
474020467656642;-0.2538;11.6107;-2.6073;
474020487661411;-0.0144;8.9902;0.6572;
474020507660796;0.6812;6.9623;4.5071;
474020527664027;-0.4453;10.8649;-0.3256;
474020547663334;-0.8739;12.7372;-2.8946;
474020567667796;0.0982;9.8126;0.0970;
474020587710834;0.6931;6.5829;3.9253;
474020607756526;0.1185;9.0501;1.5479;
474020627648757;-0.3639;11.4766;-0.0132;
474020647660834;0.1341;9.2189;1.8447;
474020667664450;0.4705;8.2600;1.2869;
474020687730449;0.3448;9.7432;-0.4453;
474020707661873;-1.0750;10.2711;0.0682;
474020727659411;-0.3100;9.5110;1.4629;
474020747655873;0.3292;10.1311;2.0255;
474020767759680;0.2909;10.3202;1.2905;
474020787670065;-1.0798;8.7053;1.6723;
474020807654026;-0.2574;8.5377;1.1384;
474020828567526;0.9457;10.3477;-0.0766;
474020847652603;-0.4226;11.1522;-0.4453;
474020867649488;-1.5886;9.6714;0.9649;
474020887638757;0.6201;8.9807;0.4262;
474020907639526;1.0379;9.8761;-0.6428;
474020927637488;-0.6680;9.7049;-0.2705;
474020947638949;-0.6345;9.3865;2.1656;
474020967665219;-0.0814;9.9599;0.9601;
474020987655449;0.7602;10.0473;-0.6596;
474021007728949;-0.1221;9.4631;-0.2981;
474021027668603;-0.5183;8.8478;-0.2322;
474021047668911;0.3328;9.9611;0.0575;
474021067696411;0.2717;10.6434;0.6812;
474021087662795;-0.4788;9.8485;1.2426;
474021107662488;-0.4836;8.8753;2.2278;
474021127662026;0.1508;9.8737;0.9792;
474021147652565;-0.1125;10.5237;1.2653;
474021167659334;-0.6105;10.4818;1.5143;
474021187671526;0.0670;9.4367;2.3260;
474021207674565;0.4154;9.3254;1.2989;
474021227669180;-0.2693;10.0652;-0.4812;
474021247689988;0.0754;9.8258;0.2969;
474021267681526;-0.3555;9.8641;1.6927;
474021287654911;-0.5962;10.2352;1.0319;
474021307661103;-0.1006;9.7169;0.9409;
474021327668641;0.2717;8.8981;1.7957;
474021347668526;0.0706;9.6965;0.5938;
474021367727141;-0.3077;10.5596;0.9625;
474021387662141;-0.2430;9.5158;2.4265;
474021407674757;0.1401;8.9447;1.9992;
474021427665141;0.0982;10.0461;-0.0622;
474021447664872;-0.2502;10.3226;-0.8284;
474021467673372;0.0790;9.8785;0.9936;
474021487685987;-0.2430;9.8557;0.8380;
474021507665334;0.0168;10.0604;0.3711;
474021527664487;0.2155;9.3087;1.6472;
474021547666564;-0.1532;9.0106;2.0925;
474021567660872;-0.1293;10.4040;0.2658;
474021587738103;-0.0180;10.9942;-1.0726;
474021607670295;0.2274;9.6331;0.8009;
474021627663026;0.0802;9.3374;0.5962;
474021647670257;-0.1592;10.1885;-0.4633;
474021667669641;0.0251;9.8940;0.2777;
474021687691064;-0.3651;9.5361;0.7159;
474021707658872;-0.3029;9.9443;0.8523;
474021727659949;0.0754;9.5505;2.0494;
474021748625064;-0.2693;9.1423;2.8874;
474021767813487;-0.1832;9.8330;1.7861;
474021787660603;-0.3543;10.6674;0.7458;
474021807645333;-0.5004;9.9611;0.2215;
474021827644256;0.1113;8.8873;1.5550;
474021847635641;0.2454;9.3039;1.3731;
474021867671756;-0.3807;10.1670;0.5219;
474021887708026;-0.3268;9.9539;-0.0754;
474021907641564;0.1065;9.3027;1.2534;
474021927682602;-0.1317;9.1674;1.6065;
474021947660987;-0.1233;9.5014;1.0965;
474021967642910;-0.0431;9.3697;1.1025;
474021987678872;0.1185;9.7707;0.8356;
474022007653141;-0.6357;9.9288;-0.0910;
474022027675795;0.0670;9.3063;-0.1197;
474022047718064;0.3687;8.9244;0.8452;
474022067654333;-0.1867;9.6929;0.6141;
474022087722102;-0.5327;10.5405;0.9565;
474022107660872;-0.3292;10.0545;0.9948;
474022127662679;0.3891;8.7831;2.0004;
474022147655295;-0.2203;9.8497;1.0008;
474022167658487;-0.2310;10.1035;0.6800;
474022187733718;-0.3304;9.8629;1.4988;
474022207653256;-0.6752;9.3984;0.9050;
474022227671064;0.2837;9.5553;-0.2538;
474022247667410;0.5674;9.4367;0.6369;
474022267703718;-0.7709;9.7528;0.4920;
474022287746795;-0.4968;9.9958;0.7482;
474022307662141;-0.1712;10.2615;0.2083;
474022327661641;0.4800;9.4224;1.2869;
474022347659564;-0.5076;8.9627;2.3547;
474022367689294;0.0455;9.9120;-0.2478;
474022387683410;0.1413;10.1682;1.0331;
474022407662064;-1.1624;9.5445;1.1097;
474022427680564;-0.1281;9.2560;0.0503;
474022447751679;0.8368;9.1459;0.8739;
474022467684333;-0.5351;9.3733;1.0870;
474022487675179;-0.6656;9.9611;0.6309;
474022507654448;-0.2203;10.2568;0.2382;
474022527668679;-0.0311;9.6223;1.2546;
474022547662525;-0.3316;8.8214;2.1943;
474022567655525;-0.2550;9.4260;2.3008;
474022587662140;-0.3340;10.1251;0.8440;
474022607678640;-0.1724;10.1035;0.7757;
474022627656910;0.1844;9.3015;1.5299;
474022647651487;-0.2143;9.3206;1.0678;
474022667661333;-0.1245;9.4080;1.6221;
474022687677448;-0.1341;9.5289;1.3791;
474022707667371;-0.2849;10.6075;0.3017;
474022727690679;-0.3675;10.0389;1.0582;
474022748156640;0.2011;8.8226;2.8036;
474022768294717;-0.3112;9.6762;0.1305;
474022787645486;-0.4549;10.3370;0.6297;
474022807653756;-0.1867;10.2400;1.7645;
474022827642448;-0.1484;9.3027;1.8088;
474022847648948;-0.1844;9.1518;0.5303;
474022867656256;-0.4800;9.7576;1.9166;
474022887674602;-0.0934;9.6223;2.0363;
474022907729794;-0.2514;10.1562;0.3699;
474022927653948;-0.3160;9.9563;-0.2981;
474022947721217;-0.0563;8.9687;1.0798;
474022967652948;0.2286;9.1016;0.9780;
474022987730563;-0.6153;10.0604;-0.2873;
474023007724871;0.0634;10.4423;0.8547;
474023027645179;-0.3938;9.5014;1.0882;
474023047728679;-0.0156;9.1111;1.0139;
474023067649563;-0.1532;9.3793;0.6488;
474023087679371;-0.3160;9.7324;-0.1676;
474023107652332;0.0958;10.1131;0.8751;
474023127660217;-0.2502;9.7887;0.6943;
474023147659332;0.0515;9.3529;0.5339;
474023167655640;0.1712;9.4355;0.7482;
474023187667794;0.1233;9.9072;-0.3579;
474023207667986;-0.4848;10.4267;-0.3316;
474023227679178;0.0491;9.9240;0.3962;
474023247663602;0.4477;9.3901;0.9110;
474023267663909;0.1018;9.3709;1.8160;
474023287719448;-0.5926;9.8617;1.2594;
474023307741178;0.2825;9.9814;1.1408;
474023327646025;0.4381;10.1849;-0.4274;
474023347630909;-0.4393;9.6139;-0.1317;
474023367630909;0.3436;9.4918;1.5646;
474023387647178;0.2837;9.8294;0.6788;
474023407682871;-0.4968;10.3705;0.7027;
474023427644678;-0.2933;10.0353;0.5160;
474023447715755;0.2885;9.4008;1.3300;
474023467668563;0.4310;9.2859;1.5969;
474023487686294;-0.2035;10.0844;1.7095;
474023507853986;-0.3879;10.0365;2.1835;
474023527672755;-0.0335;10.2316;2.1153;
474023547678371;0.4106;9.7636;1.4365;
474023567677986;0.4034;9.2811;1.2881;
474023587690217;-0.5243;9.3302;0.4250;
474023607680140;0.2119;9.9252;1.0774;
474023627664024;-0.0898;10.0808;0.0922;
474023647685947;-0.2693;9.4200;0.4549;
474023667679178;0.2239;9.0357;1.6388;
474023687725678;0.0347;9.9000;0.1963;
474023707751755;-0.1173;10.0640;1.0618;
474023727747947;-0.3100;10.3908;0.3256;
474023747680370;0.3100;9.5014;1.2378;
474023767669563;0.1544;8.8897;2.4840;
474023787671870;-0.2777;9.6223;0.7805;
474023807713870;-0.0503;10.3118;0.3687;
474023827656563;0.0395;10.5129;0.8871;
474023847701870;-0.6656;9.6786;0.4657;
474023867701409;0.4010;9.1794;1.1768;
474023887667255;0.4010;9.4655;0.4884;
474023907731178;-0.2837;9.9180;-0.2789;
474023927717639;-0.4369;10.1418;-0.1245;
474023947712870;0.0790;9.5289;0.3412;
474023967657255;0.2454;9.4044;0.6728;
474023987652716;-0.4489;9.6403;1.2713;
474024007756793;-0.4226;9.3877;2.2039;
474024027679678;-0.1508;10.1574;0.8667;
474024047687178;-0.4549;9.9611;-1.0235;
474024067676870;-0.1065;8.4874;1.1863;
474024087654293;-0.1305;8.8693;1.1372;
474024107886562;-0.3316;10.7488;0.6500;
474024127673216;0.0982;9.7971;1.5490;
474024147674947;-0.6009;8.8992;0.5124;
474024167689139;-0.3795;9.2967;-0.1353;
474024187666793;-0.0539;9.9647;0.0096;
474024207678062;0.4381;9.7959;1.4868;
474024227678716;-0.6560;10.5177;1.3360;
474024247684678;-0.9337;9.6355;0.7518;
474024267681447;0.8188;8.9747;1.7154;
474024287675524;-0.0371;9.4212;1.8794;
474024307767908;-0.8356;10.4866;0.4776;
474024327672639;0.0060;10.4244;0.0215;
474024347672716;-0.0395;9.2620;0.5339;
474024367757678;-0.5052;9.6929;1.7717;
474024387672447;-0.0443;10.2999;0.9649;
474024407680293;-0.2083;9.9323;1.3707;
474024427666870;0.1077;10.2580;0.4034;
474024447755370;-0.6740;9.9695;-0.1041;
474024467659024;0.1281;9.7241;0.6297;
474024487659024;0.0204;9.3757;1.4545;
474024507686216;-0.8428;9.7252;0.6045;
474024527690947;-0.3244;10.7512;-0.0706;
474024547651908;0.0742;10.1275;0.3555;
474024567650793;0.3089;8.9639;1.8459;
474024587647831;-0.6129;9.6426;1.5921;
474024607662831;-0.0455;10.1849;1.2127;
474024627664601;0.0215;10.1909;1.1241;
474024647673524;-0.7123;9.4260;0.6524;
474024667661024;0.1149;8.9591;0.8691;
474024687653100;0.0371;9.5265;0.7793;
474024707671870;-0.1712;9.8426;0.3148;
474024727659677;-0.3855;10.1155;0.3627;
474024747656562;-0.6345;9.5840;0.3124;
474024767658716;0.6117;9.2380;1.1504;
474024787665947;-0.1173;9.4463;1.6245;
474024807669831;-0.5100;9.7300;0.9840;
474024827652331;-0.2945;10.0808;1.5945;
474024847671754;-0.4010;9.6319;1.3850;
474024867665370;0.0527;9.4751;1.4102;
474024887692716;-0.1173;9.4523;1.6879;
474024907697446;-0.2239;9.5217;1.4006;
474024927690870;0.1113;10.5884;0.7171;
474024947767177;-0.7003;9.8892;0.7003;
474024967667331;0.0718;8.7843;1.1863;
474024989295831;-0.0742;9.6307;0.3855;
474025007732523;-0.3029;10.4818;0.1927;
474025027831677;-0.0012;10.3298;0.6045;
474025047694639;-0.3711;9.6067;0.4776;
474025067747062;0.5160;9.1806;0.8140;
474025087677062;-0.1161;9.5170;0.8679;
474025107764562;-0.3747;10.3130;1.7358;
474025127744523;-0.4573;10.3777;1.0331;
474025147744562;-0.2370;9.8234;1.1408;
474025167759677;0.0790;9.1040;1.7825;
474025187667446;-0.3519;9.3470;1.4305;
474025207683139;-0.5866;9.9982;0.4848;
474025227766985;-0.3555;9.9144;0.4537;
474025247686946;-0.3388;9.0740;0.0251;
474025267671100;0.0862;8.7664;-0.5866;
474025287671100;-0.3077;9.3278;-0.1508;
474025307667715;-0.0251;9.8629;0.4274;
474025327675754;0.1317;10.1203;0.6464;
474025347666215;-0.5614;9.4008;0.9792;
474025367675138;0.3819;9.1770;1.5802;
474025387655792;0.0299;9.7815;0.5112;
474025407674369;-0.4944;10.3465;0.8679;
474025427734061;-0.4405;10.2915;1.2522;
474025447664523;-0.3436;9.5852;1.2498;
474025467736138;0.4776;9.3134;1.6963;
474025487738561;0.0910;9.6450;0.8811;
474025507738946;-0.1640;10.0090;1.2605;
474025527764215;-0.5938;10.2149;0.5890;
474025547665446;0.0910;9.5481;0.4429;
474025567651908;0.3124;9.1794;0.9541;
474025587663754;-1.0319;9.5768;0.5902;
474025607656369;0.3172;10.4196;1.8040;
474025627664484;0.2658;10.2412;0.7997;
474025647670831;-0.9254;9.3948;0.8535;
474025667654446;-0.1472;9.3398;1.0666;
474025687661292;0.6728;9.8761;-0.6764;
474025707662600;-0.5148;10.2687;0.5303;
474025727670254;-1.0858;10.1993;0.4369;
474025747651869;-0.2478;9.8306;0.5914;
474025767676907;0.5938;9.4882;1.7310;
474025787653792;-0.5447;9.7372;0.9481;
474025807662061;-0.8284;10.0533;0.3807;
474025827965100;0.0551;10.1706;-0.2861;
474025847639561;-0.0132;9.3565;1.7286;
474025867692446;-0.3340;9.4990;2.2410;
474025887639715;-0.2167;10.1885;1.4365;
474025907637561;0.1796;10.4722;1.5335;
474025927769061;0.1724;9.9144;0.7566;
474025947747830;-0.2251;9.3386;1.0415;
474025967681753;0.1652;9.3278;0.6045;
474025987654753;0.3136;9.8809;-0.3100;
474026007733176;-0.0084;10.1083;0.6847;
474026027737023;-0.4609;10.0640;0.9744;
474026047732753;0.0419;9.7683;1.1779;
474026067743176;0.7326;9.5636;1.6975;
474026087740561;-0.4226;9.6462;0.6644;
474026107669446;0.0084;10.0461;0.2346;
474026127692330;0.1676;9.7444;-0.5016;
474026147661292;0.3268;9.1794;0.6093;
474026167656946;-0.0539;9.3925;1.8866;
474026187662869;-0.4369;9.9994;0.9960;
474026207731215;0.3627;9.9216;2.2517;
474026227671022;-0.2203;9.6498;1.2941;
474026247671869;0.2550;9.3027;0.7266;
474026267674407;0.0742;9.3458;1.8136;
474026287671984;-0.1568;9.7360;0.0431;
474026307671753;0.2274;10.2460;0.9385;
474026327749138;-0.5459;9.9551;0.8056;
474026347680253;0.1844;9.1949;1.5550;
474026367661676;-0.0419;10.0018;1.1001;
474026387661215;-0.3699;10.0173;0.5734;
474026407676792;0.2095;10.2161;0.6309;
474026427673484;-0.1437;9.8330;-0.0036;
474026447660292;0.5243;9.5517;0.1185;
474026467661945;-0.0718;9.7025;0.8667;
474026487662215;0.2215;10.3765;1.1480;
474026507663330;0.1832;10.7236;0.8056;
474026527681945;-0.3340;9.5612;0.1999;
474026547685022;0.5830;8.9818;1.1768;
474026567674676;0.2813;9.6738;1.7238;
474026587676291;-0.4944;10.5417;0.0275;
474026607767291;0.2825;9.6582;1.5467;
474026627675714;-0.0443;9.2476;1.4293;
474026647685407;0.2538;9.7767;0.4800;
474026667681561;0.2993;9.8043;0.3879;
474026687672253;-0.0383;9.2931;1.3767;
474026707679945;-0.2179;9.9994;-0.1053;
474026727688753;-0.1568;9.7420;-0.7075;
474026748719253;0.5160;8.6455;1.0343;
474026767666214;0.4860;9.0453;1.1756;
474026787798368;-0.7230;10.4088;-0.2346;
474026807654407;0.0383;10.3956;-0.3579;
474026827670637;0.5231;8.7400;1.6759;
474026847642445;-0.4956;9.4523;1.0235;
474026867660560;-0.3196;10.1646;0.6991;
474026887655791;0.7781;9.5337;1.4832;
474026907655522;-0.3328;9.6355;0.9685;
474026927667868;-0.8344;9.6175;0.6895;
474026947693830;0.1604;9.4308;1.3048;
474026967736214;0.3998;9.6295;0.3747;
474026987652714;-0.0718;9.7444;0.6991;
474027007739522;-0.3029;10.1945;0.5207;
474027027667945;0.0587;9.5074;1.4066;
474027047653176;0.0479;9.0728;2.6971;
474027067737791;-0.4010;9.8078;0.0718;
474027087738599;-0.0024;10.5536;1.0989;
474027107649637;-0.0024;9.6307;1.1624;
474027127665560;0.0551;9.2847;1.7538;
474027147673945;-0.2286;9.9108;0.9517;
474027167674060;-0.1053;10.4256;1.4581;
474027187678214;0.4920;10.1095;1.5790;
474027207672714;-0.0587;9.4367;0.0527;
474027227679060;0.0622;9.2847;0.1616;
474027247687176;0.2502;9.5409;0.7446;
474027267684676;-0.3915;9.8857;1.1073;
474027287680829;0.1125;10.2627;0.9768;
474027307682137;-0.1233;9.8749;0.3388;
474027327665445;0.3268;9.3960;0.3376;
474027347666714;-0.4166;9.2560;0.2322;
474027367674637;-0.0934;10.1730;-0.5219;
474027387669291;0.0311;10.4244;-0.0539;
474027407652368;-0.2239;9.4727;0.9433;
474027427687522;0.1520;9.1650;2.0291;
474027447681868;-0.3986;10.2580;0.3627;
474027467671829;-0.1030;10.3848;1.1360;
474027487657060;0.0551;9.5876;1.2689;
474027507656022;-0.1137;9.4140;0.6788;
474027527663560;-0.3328;9.4128;0.6428;
474027547689868;0.2382;9.4116;0.3831;
474027567770560;-0.1053;9.7564;1.3767;
474027587673137;-0.3591;10.0353;0.1580;
474027607686598;-0.1245;9.1207;1.4940;
474027627668560;0.1018;9.1925;2.3774;
474027647675291;-0.4130;10.1359;-0.2873;
474027667682868;-0.1030;10.3262;-0.0180;
474027687684752;-0.3555;9.2045;0.8823;
474027707684598;-0.3555;9.1877;1.0977;
474027727668483;-0.1137;9.9766;1.3455;
474027747706560;-0.6369;9.9623;0.9720;
474027767672137;-0.1389;10.1071;0.7183;
474027787743406;-0.1245;10.0006;-0.0443;
474027807661521;-0.3531;9.6654;1.6065;
474027827662983;-0.3567;9.4954;2.9580;
474027847650637;-0.4034;10.1789;0.9732;
474027867650060;-0.3208;10.1718;0.7602;
474027887651060;-0.4274;9.3158;0.9876;
474027907697560;-0.0838;9.0022;1.1468;
474027927654714;0.0994;9.9419;0.4501;
474027947696367;-0.3100;10.0197;0.7135;
474027967668329;-0.1437;9.7683;1.4353;
474027987743329;-0.7949;9.2823;0.6153;
474028007675560;0.2981;9.3685;0.5758;
474028027671906;-0.1018;9.5445;0.9912;
474028047755483;-1.2725;9.7085;0.8823;
474028067674444;-0.0611;9.9144;0.2263;
474028087666406;0.4034;9.0788;1.3443;
474028107667252;-0.4274;9.3745;2.1081;
474028127682175;-1.2821;10.0209;0.1149;
474028147676636;0.0287;9.8545;0.4800;
474028167667252;-0.2813;9.5301;0.2059;
474028187674098;-0.1652;9.3673;0.5100;
474028207660483;-0.0108;9.3853;1.4138;
474028227670444;0.2622;9.6139;0.3759;
474028247678136;-0.8691;10.0604;1.3384;
474028267677559;-0.7099;10.1299;0.8248;
474028287680059;0.2741;9.6917;1.3767;
474028307681752;0.2442;9.2512;1.2905;
474028327671867;-0.4836;10.0126;0.1915;
474028347672521;-0.1006;10.3980;1.0714;
474028367673136;0.1329;9.9599;0.1748;
474028387687790;0.0263;9.4822;0.9206;
474028407677329;-0.0646;9.5816;1.7298;
474028427666982;-0.2789;9.9671;0.9086;
474028447664098;-0.1999;10.4411;1.8687;
474028467660444;-0.3855;10.1490;1.0355;
474028487661713;-0.0024;9.7336;1.7382;
474028507661829;0.0515;9.3889;2.4050;
474028527669367;-0.2969;9.6869;1.5826;
474028547666828;-0.3256;10.4028;1.3096;
474028567742328;-0.4501;9.8785;0.8116;
474028587757944;0.1580;8.7807;2.3535;
474028607666752;0.0144;10.1370;1.5826;
474028627661752;-0.6620;10.1370;2.1560;
474028647652175;0.0503;9.7564;2.1703;
474028667668444;-0.5758;9.6079;1.1588;
474028687668867;0.0491;9.5541;1.9393;
474028707666944;0.2382;9.9359;1.3779;
474028727662136;-0.2933;9.6175;1.5862;
474028747950059;-0.2670;9.8342;2.0901;
474028767725098;-0.4752;10.0185;0.8571;
474028788386290;0.0407;9.9802;0.2574;
474028807650905;-0.1041;9.1291;1.1648;
474028827654098;-0.2586;9.6678;2.2051;
474028847631251;-0.0347;10.7188;-0.8332;
474028867662944;-0.2634;9.1937;0.9840;
474028887724867;0.2933;8.5784;1.8375;
474028907659982;-0.2418;10.5189;-0.7278;
474028927735021;0.0215;10.9535;0.5303;
474028947736597;-0.3603;9.5493;1.8411;
474028967663751;-0.2921;8.9962;1.4269;
474028987653405;0.0323;10.0401;1.0894;
474029007661790;0.5255;10.1394;0.3759;
474029027652290;-0.1556;10.0652;2.0518;
474029047649597;-0.3627;9.9419;0.3077;
474029067738251;-0.0467;9.3122;1.6508;
474029087665790;0.3663;9.7097;2.6995;
474029107739751;-0.5471;10.1454;1.4365;
474029127730559;0.6309;10.5309;1.2414;
474029147656443;-0.2263;9.5361;1.5311;
474029167667290;-0.1413;9.3865;1.3886;
474029187765713;0.3436;9.8857;0.9577;
474029207668213;0.6512;9.8282;0.9062;
474029227667597;-0.8056;9.7983;1.0032;
474029247741443;-0.1568;9.9563;0.0467;
474029267683559;0.5734;9.1243;1.1588;
474029287664943;0.3053;9.4966;1.8854;
474029307676328;-0.4286;9.9707;0.8715;
474029327753482;0.4130;9.3877;1.7933;
474029347673289;0.5195;9.5361;1.4126;
474029367667789;0.4729;9.6151;1.0127;
474029387682943;-0.3531;9.2620;0.7602;
474029407669328;-0.4477;9.7456;1.2246;
474029427718982;0.3615;10.3597;0.7039;
474029447674712;0.3256;9.3673;1.0702;
474029467862597;0.3579;8.1558;2.3032;
474029487669559;-0.0826;9.6127;0.7003;
474029507746905;-0.3555;10.7284;0.9218;
474029527752866;0.0096;9.9551;2.0650;
474029547686174;-0.2622;9.4643;0.8906;
474029567729828;0.1389;9.2081;0.6404;
474029587815328;0.2490;9.4128;1.0127;
474029608525943;0.0970;9.9395;0.9697;
474029627738174;-0.4944;10.3346;1.2079;
474029647672674;-0.4693;9.7671;1.4952;
474029667655020;0.3436;9.3781;1.7418;
474029687658020;0.0754;9.4176;0.9170;
474029707638597;-0.0766;9.9551;0.7913;
474029727634712;-0.3448;9.9228;1.2462;
474029747668443;-0.0634;9.3613;1.7909;
474029767738828;-0.1556;9.5565;1.5538;
474029787648866;-0.3783;10.0389;0.6081;
474029807991328;0.1856;10.1275;1.7549;
474029827634289;-0.2502;9.3805;0.4537;
474029847638558;-0.4010;9.3996;0.7087;
474029867649904;0.3340;9.7803;1.1408;
474029887650058;-0.0060;10.1311;1.0044;
474029907649674;-0.4022;9.7169;1.1935;
474029927658174;0.0658;9.6618;1.2378;
474029947668251;0.2059;9.7875;1.4090;
474029967665789;0.1712;10.0209;2.2565;
474029987673981;-0.4908;10.2376;1.7873;
474030007672597;0.0479;10.4483;1.3695;
474030027685712;0.0455;9.8785;0.8847;
474030047660020;-0.1891;9.0884;2.2302;
474030067668789;0.0108;9.9443;2.2901;
474030087666750;0.0718;10.5153;0.9984;
474030107661366;-0.1963;9.3972;1.1181;
474030127693174;-0.3627;9.4224;1.3874;
474030147679058;0.1628;10.0880;1.2474;
474030167659443;0.3100;9.6786;1.6484;
474030187663904;-0.6536;9.4487;1.5383;
474030207655481;0.3567;9.8964;0.6416;
474030227668443;0.2310;9.8270;-0.2286;
474030247728597;0.0898;9.0154;1.6700;
474030267662135;-0.7195;9.4966;2.3200;
474030287670520;-0.1844;10.2711;1.6125;
474030307671020;0.3531;10.0437;0.6680;
474030327662289;-0.2239;8.9328;2.2063;
474030347663289;0.0599;9.4080;1.2438;
474030367660904;0.3304;10.3142;-0.0850;
474030387661827;-0.7242;9.9730;1.6125;
474030407670404;-0.0359;9.3314;2.6049;
474030427734943;-0.3388;9.5062;1.6424;
474030447664558;0.2538;9.8485;0.8523;
474030467735712;0.0419;9.3817;1.5299;
474030487745404;-0.4776;9.6822;1.3551;
474030507660673;-0.1389;9.9850;0.9421;
474030527672750;0.3843;9.5624;0.2310;
474030547670058;-0.1209;8.9376;2.2829;
474030567739519;-0.3603;10.0999;0.5782;
474030587669981;0.2957;10.1789;1.2318;
474030607739673;0.3160;9.3637;1.6771;
474030627651827;-0.7230;9.0477;1.1540;
474030647654135;-0.0682;9.6199;1.4114;
474030667727904;0.3148;9.9024;0.3915;
474030687676173;-0.1556;9.9754;1.8387;
474030707665981;-0.3915;9.4990;1.5431;
474030727675942;0.2239;9.4296;1.2210;
474030748179673;0.9361;9.5457;2.2697;
474030767668981;-0.1508;9.9383;1.2007;
474030787668865;-0.4968;10.1586;1.4090;
474030807656019;0.1257;9.6690;1.1768;
474030827687519;0.7039;9.3781;1.5874;
474030847647481;-0.0934;9.9802;2.2517;
474030867681096;-0.0239;9.9300;1.7490;
474030887679135;0.3172;9.8007;1.2294;
474030907678288;0.9301;9.6319;0.7793;
474030927679442;-0.0814;9.5373;0.6381;
474030947733442;-0.0551;9.4523;1.5155;
474030967658827;0.1353;10.0317;1.7346;
474030987674481;0.2406;10.4663;1.7538;
474031007757981;0.3029;10.3118;0.7494;
474031027716173;0.0575;9.0980;1.6879;
474031047651711;0.7314;9.1207;1.9070;
474031067659211;-0.3915;10.4327;0.2825;
474031087656673;0.0814;10.3741;1.0882;
474031107674519;0.4764;9.3518;1.1552;
474031127662250;0.4238;9.2847;1.0116;
474031147666865;-0.2717;9.7695;0.7470;
474031167671134;0.1748;9.8198;0.2011;
474031187673134;0.3017;9.6690;1.6879;
474031207874480;0.0946;9.5074;1.4102;
474031227665288;-0.3316;9.8497;1.0187;
474031247675903;0.6369;9.5086;1.8794;
474031267677211;-0.4094;9.2213;1.8627;
474031287674711;-0.1101;9.7947;1.8962;
474031307678057;0.5878;9.8617;0.4896;
474031327687442;0.2239;8.9687;1.6759;
474031347694519;-0.4130;9.4559;0.8116;
474031367683826;0.0970;10.0736;1.1803;
474031387667019;-0.3077;10.1382;0.9768;
474031407681980;0.1197;9.6678;0.9553;
474031427724250;-0.1975;9.4056;0.8344;
474031447764019;0.6105;9.2548;0.9421;
474031468108019;0.2011;9.7324;1.0606;
474031487741519;0.1269;10.5165;1.7980;
474031507681173;-0.4022;10.4100;0.4537;
474031527676480;-0.1437;9.3134;0.6512;
474031547754749;0.4202;9.2703;1.8914;
474031567682365;0.0060;10.5943;0.4788;
474031589027057;0.0658;10.2699;1.2558;
474031607695903;0.2370;9.3218;1.1923;
474031627718172;-0.2191;9.7025;0.8655;
474031647664942;0.4824;10.1598;-0.1173;
474031667669249;0.4441;9.9024;0.4489;
474031687681249;0.0359;9.8869;1.0163;
474031707665134;-0.1568;10.1359;0.9529;
474031727677519;0.1484;9.7288;1.1887;
474031751327826;0.2239;9.9742;1.6173;
474031767648018;0.0311;9.9527;0.8368;
474031787861442;0.2454;10.4375;1.5802;
474031807655826;-0.0251;9.8881;2.1943;
474031827651365;-0.0479;9.2512;0.4286;
474031847650018;0.6788;9.9323;-0.0395;
474031867683134;-0.0898;9.8857;0.2897;
474031887686749;0.0383;9.5110;0.7207;
474031907652365;0.2981;9.7097;0.5076;
474031927676403;-0.0838;9.7552;0.1820;
474031947666249;-0.2897;9.4056;1.4641;
474031967688249;-0.1484;9.6307;1.3324;
474031987674326;0.6452;10.5596;-0.0084;
474032007669326;0.8068;9.4774;-0.5004;
474032027772903;0.1401;8.1666;1.6927;
474032047758826;-0.2502;9.4044;1.8926;
474032067778672;0.1796;10.7775;-0.4752;
474032087665403;-0.0084;9.7061;0.8703;
474032107744557;-0.3579;8.9268;0.7278;
474032127670864;0.3651;9.5684;0.0024;
474032147666249;0.8068;9.6594;-0.0670;
474032167755134;0.4860;9.1506;1.7166;
474032187687864;-0.4860;9.9084;0.5734;
474032207682287;0.2909;10.1478;-0.3795;
474032227769326;0.1353;9.2296;1.1109;
474032247656095;-0.1808;8.9603;1.6472;
474032267675826;-0.0096;10.3034;-0.0814;
474032287671018;0.5459;10.5429;0.2107;
474032307732441;0.1053;8.9615;1.3791;
474032327664095;-0.2765;9.6630;0.1748;
474032347655980;0.5195;9.9407;-0.3220;
474032367740133;0.0910;9.7193;0.0563;
474032387670326;0.3400;9.7612;-0.2873;
474032407680441;0.5662;9.7013;-0.5100;
474032427755749;-0.2167;9.3470;0.4357;
474032447657441;-0.0970;9.5170;0.7027;
474032467666672;-0.0395;10.0616;0.9457;
474032487683980;0.7949;10.1430;1.3743;
474032507665633;-0.2418;9.5648;2.5738;
474032527672133;-0.7817;9.6774;1.6077;
474032547642249;0.7530;9.9862;0.5519;
474032567661826;-0.1844;9.5146;0.7087;
474032587654633;-0.4669;9.4200;0.2813;
474032607651287;0.5890;9.4906;0.0826;
474032627729633;0.2574;9.1435;-0.1317;
474032647717749;0.2897;9.5457;0.1939;
474032667677902;-0.9732;10.3848;0.4334;
474032687652979;0.8739;10.1622;0.4310;
474032707660787;0.2502;9.3673;1.4389;
474032727744825;-0.6883;9.3781;1.4629;
474032748904595;-0.1820;10.0545;1.5311;
474032767761556;0.4980;9.9730;1.6077;
474032787703210;0.1712;9.7109;0.7985;
474032807652325;-0.0395;9.6426;1.0546;
474032827655018;0.2239;9.8031;1.0942;
474032847642902;0.3053;9.9754;1.0139;
474032867691672;-0.4501;10.0509;1.8603;
474032887678441;0.1401;10.0245;1.3898;
474032907694364;0.2658;9.8055;0.1413;
474032927695172;0.1640;9.4260;0.6740;
474032947674095;0.1544;9.7217;0.5746;
474032967669248;0.1700;10.3932;-0.0503;
474032987668825;0.5590;10.0808;0.2717;
474033007751787;-0.0120;9.2799;1.1157;
474033027669864;-0.1425;9.9635;0.8284;
474033047724979;0.2442;10.3394;0.2203;
474033067666825;0.2598;9.7671;0.4824;
474033087675518;0.1604;9.6486;0.6704;
474033107670864;-0.1496;10.0030;-0.2011;
474033127674248;0.1676;9.7683;1.0654;
474033147672825;-0.2849;9.8426;1.5347;
474033167680094;-0.0551;10.1993;1.2318;
474033187673171;0.2394;9.8366;0.7614;
474033207674594;0.0503;9.3817;0.9445;
474033227680941;-0.2598;9.3470;1.2809;
474033247688710;-0.1963;9.8569;-0.7506;
474033267673325;-0.1628;10.0676;0.3017;
474033287677017;0.3268;9.4882;-0.2095;
474033307666902;-0.2203;9.2703;1.1444;
474033327675017;-0.1676;9.7839;1.5598;
474033347684248;-0.2670;9.8701;0.7961;
474033367682940;0.2430;10.1203;0.2334;
474033387681748;-0.0263;9.0944;0.3112;
474033407675940;-0.3017;9.1578;0.1101;
474033427691863;-0.0251;10.0209;0.2119;
474033447668363;0.3795;9.9264;1.0487;
474033467686210;-0.0886;9.7612;1.4138;
474033487677440;0.0910;9.8509;0.7925;
474033507673171;-0.3100;9.2931;0.9996;
474033527680710;-0.0263;9.4056;1.5682;
474033547690633;0.1532;10.0748;0.1472;
474033567668671;0.2239;10.2699;1.1995;
474033587670709;0.1592;9.3781;1.1253;
474033607663402;0.1101;9.3865;1.5670;
474033627670786;-0.2981;10.2939;1.0439;
474033647669402;-0.1365;10.0892;1.1779;
474033667677940;0.3699;9.9479;0.9290;
474033687672248;0.2023;9.5074;1.3048;
474033707661979;-0.0503;9.8797;0.3292;
474033727656479;0.0347;9.9599;0.8619;
474033747677748;-0.0395;10.0233;1.2294;
474033767653248;0.1580;10.0963;1.6352;
474033788039479;0.1425;10.0209;0.5088;
474033807643440;-0.1856;8.9280;0.1592;
474033827717555;0.2801;9.5589;0.4848;
474033847644786;-0.1520;10.4866;-0.3184;
474033867658440;0.5674;10.2843;-0.0527;
474033887668902;-0.2981;9.0585;1.3132;
474033907660594;-0.3484;9.0872;1.1600;
474033927652594;0.0215;10.4052;0.2059;
474033947660555;0.1353;10.2999;1.2270;
474033967659671;0.2741;9.2967;1.5191;
474033987673325;0.0898;8.8011;1.0642;
474034007672632;-0.2322;9.5684;-0.3089;
474034027662978;0.3460;9.6606;0.0587;
474034047667055;-0.0132;9.5720;0.8978;
474034067682325;-0.4226;9.5289;0.2861;
474034087679940;0.0622;8.8873;1.1444;
474034107665709;0.4621;9.2416;2.7198;
474034127738094;-0.1808;10.6291;-0.1353;
474034147668055;-0.1018;9.7767;1.5347;
474034167668632;-0.0263;9.1207;1.0104;
474034187666478;0.1460;9.5014;0.1628;
474034207670248;-0.4609;10.3441;0.3687;
474034227992248;0.1556;9.7049;0.8775;
474034247659824;0.2322;9.9683;0.9996;
474034267855901;-0.3089;10.1670;0.3412;
474034287741747;0.0730;9.4020;0.7709;
474034307671555;0.2574;9.6989;0.8894;
474034327860478;-0.2526;10.2424;0.6237;
474034347717324;-0.3089;10.4519;0.6201;
474034367784978;0.6500;9.7097;0.3855;
474034387666978;0.1413;9.0154;1.3850;
474034407639747;-0.2263;9.9204;1.2629;
474034427634978;-0.0670;10.2627;0.6416;
474034447645363;0.4764;10.0329;0.4334;
474034467646363;0.1484;9.1925;1.0882;
474034487642017;-0.4800;9.1494;0.4274;
474034507637824;0.3172;9.8629;-0.0874;
474034527638824;0.4345;9.9264;0.5387;
474034547638747;-0.2466;9.8533;0.6141;
474034567634209;-0.1341;9.6810;0.7111;
474034587651978;0.3579;9.4655;1.1061;
474034607662824;0.4250;9.9611;1.3659;
474034627666132;-0.6428;10.4675;1.2043;
474034647665363;-0.2729;10.0341;0.7745;
474034667660978;0.2538;9.4451;1.7681;
474034687681363;-0.2047;9.9240;1.7585;
474034707656093;-0.3460;10.4734;0.3950;
474034727656901;0.1077;10.1921;1.5263;
474034747718363;-0.2849;9.6857;1.4976;
474034767668016;0.1987;9.6534;0.0323;
474034787961478;-0.2478;9.8569;0.3879;
474034807781747;-0.1820;9.6163;1.2893;
474034827642362;-0.0347;10.4315;0.0371;
474034847640786;-0.1628;10.1119;-0.2370;
474034867654324;0.0742;9.1004;1.0690;
474034887736478;-0.2430;9.4822;1.5299;
474034907651785;0.5016;10.6147;-0.0850;
474034927662132;0.0958;9.9300;0.1784;
474034947671093;-0.2346;8.9735;0.6524;
474034967664593;0.1951;9.3182;0.3496;
474034987668093;0.2047;10.1406;0.1532;
474035007663247;-0.1413;10.1119;0.3136;
474035027660093;-0.3651;9.7516;0.5339;
474035047656824;0.7614;9.4918;0.9373;
474035067658516;-0.0084;9.7516;0.5567;
474035087678055;-0.0419;9.6151;0.9720;
474035107655785;0.1832;10.1502;1.3072;
474035127660978;0.1903;10.0305;0.7123;
474035147660247;-0.0766;9.7648;1.0092;
474035167657208;-0.3543;9.8198;1.3180;
474035187668747;0.8799;9.5864;1.6640;
474035207668862;-0.0970;10.2975;1.1301;
474035227665285;0.0048;10.2723;0.8655;
474035247667054;0.5914;9.3685;2.0375;
474035267674131;0.1377;9.6774;0.9230;
474035287746208;-0.4693;10.4579;0.9529;
474035307660247;0.3567;9.9862;1.0187;
474035327663670;0.2155;9.8282;0.8631;
474035347663362;0.1832;9.9359;1.3240;
474035367673785;-0.0419;9.9443;1.1696;
474035387669901;0.4106;9.9910;1.6316;
474035407687516;-0.1915;10.4172;0.6105;
474035427698362;-0.0838;10.0305;0.5351;
474035447653247;0.0790;9.4727;1.3958;
474035467658208;0.2825;9.8545;1.3683;
474035487668554;0.3280;10.3896;0.6045;
474035507694516;0.0670;9.9898;0.3364;
474035527677785;0.1389;9.4475;0.6632;
474035547685747;0.2191;9.5481;1.0343;
474035567668093;0.2813;9.9264;0.7841;
474035587668785;0.0311;9.9503;0.9397;
474035607684054;0.3998;9.9264;0.9900;
474035627683708;0.0742;9.4212;0.7841;
474035647675785;0.0084;9.2979;0.8571;
474035667683631;-0.0874;9.5313;0.8440;
474035687675746;0.6488;9.9539;0.8416;
474035707734785;-0.0347;10.0497;0.7470;
474035727678170;-0.0742;9.1734;1.5191;
474035747771016;0.2885;9.0956;0.7673;
474035767677939;0.2562;9.9599;-0.0455;
474035787672862;-0.1353;9.7779;1.1289;
474035807654439;0.0970;9.3230;0.5435;
474035827662477;0.3663;9.0740;0.9194;
474035847657400;0.1197;9.7121;0.6871;
474035867661131;-0.1353;10.0676;0.1568;
474035887655939;0.1556;9.7085;1.0104;
474035907695939;-0.0120;9.3901;0.5219;
474035927672900;0.1101;9.2512;0.8452;
474035947681246;0.1317;9.4320;1.0343;
474035967762092;0.3424;10.1514;0.7829;
474035987683939;-0.0048;10.1514;1.1313;
474036007685323;-0.1772;9.6654;0.7913;
474036027687939;0.5219;9.4858;1.7011;
474036047676169;0.0599;10.0221;0.3388;
474036067680438;-0.2885;10.1095;1.0427;
474036087683054;0.3867;9.9563;0.9481;
474036107723862;0.0072;9.2428;0.9457;
474036127676438;0.0898;9.4248;0.8954;
474036147677862;0.1377;9.8198;-0.6045;
474036167676592;0.0778;9.9922;0.3100;
474036187689323;-0.1688;9.9419;0.5315;
474036207676323;0.0622;9.4990;0.5926;
474036227674438;0.3136;9.4439;0.6620;
474036247675669;-0.1580;9.5948;-0.1413;
474036267682285;-0.2693;10.2855;0.4429;
474036287685015;0.1365;9.7707;1.0654;
474036307798938;0.3136;9.2368;2.0770;
474036327664861;-0.2897;10.0449;1.1001;
474036347663861;-0.0658;10.1634;0.1796;
474036367666554;0.4968;9.8198;0.9948;
474036387661977;-0.2945;9.4068;0.3172;
474036407669823;0.0982;9.1363;1.4198;
474036427747631;0.3256;9.6414;1.4246;
474036447668284;0.1544;10.0952;0.6620;
474036467661746;-0.5279;9.8988;0.9445;
474036487659938;0.0958;9.7731;1.1564;
474036507716054;0.4609;9.1231;2.7054;
474036527678977;-0.3663;9.7779;1.5275;
474036547672977;0.5447;9.6833;1.5658;
474036567745900;0.0934;9.4056;0.9086;
474036587670938;0.0575;9.1770;-0.0204;
474036607759015;-0.1401;9.4906;-0.2167;
474036627672246;0.0970;9.7887;0.7889;
474036647667784;-0.3496;9.8593;1.8783;
474036667680130;0.1018;9.4727;0.7075;
474036687665592;0.0826;9.3194;0.8104;
474036707701015;0.3962;9.8043;1.6185;
474036727673207;-0.1903;10.0844;1.3144;
474036747664976;-0.2442;10.1598;1.7669;
474036767661284;-0.2406;10.2867;1.1744;
474036787913861;0.5231;9.5924;1.0415;
474036807645515;-0.0527;9.0070;2.0111;
474036827652053;0.2682;9.4200;2.5091;
474036847650323;-0.2526;10.6494;1.7178;
474036867710899;-0.4010;10.6063;1.1217;
474036887646976;0.1221;9.4439;2.3391;
474036907812746;0.1317;9.4583;2.2733;
474036927692207;-0.2682;10.5872;1.1301;
474036947739746;-0.2394;10.2137;1.8268;
474036967655553;0.5602;9.1686;2.2517;
474036987737284;0.3316;9.3015;2.1452;
474037007666822;-0.5674;10.3394;0.9900;
474037027666399;-0.0551;10.2807;0.5926;
474037047661130;0.2263;9.4128;1.7957;
474037067668476;-0.4345;9.3913;0.7614;
474037087658938;0.4393;9.4822;0.3699;
474037107754630;0.3795;9.2356;1.5060;
474037127771399;-0.3388;9.8485;1.1420;
474037147660438;-0.8499;10.3669;0.5183;
474037167660245;0.2634;9.7205;0.9002;
474037187654822;0.8212;8.4551;1.7837;
474037207661784;-0.3663;9.3673;0.9086;
474037227668168;-0.2622;10.1694;0.8475;
474037247661515;0.3436;10.1179;1.6664;
474037267659861;-0.0754;8.9399;1.6795;
474037287660745;-0.0934;9.7276;1.1241;
474037307668591;0.0144;10.3154;0.6177;
474037327692591;0.2370;9.6965;2.1033;
474037347736630;-0.2334;9.3146;1.2761;
474037367724091;-0.1664;9.5840;0.6201;
474037387658668;0.2406;9.7121;1.1337;
474037407653707;0.4405;9.7731;1.8663;
474037427657476;-0.4250;9.8366;1.7035;
474037447746668;-0.3950;9.9575;-0.2310;
474037467734899;0.6919;9.4308;0.3268;
474037487661899;0.2813;8.9711;2.1536;
474037507679014;-0.4381;10.2891;1.2761;
474037527644937;-0.3663;11.0564;0.5219;
474037547663745;0.3531;8.8418;2.0686;
474037567678053;-0.0718;9.3757;1.8052;
474037587670707;-0.1556;10.8254;0.4621;
474037607682207;-0.3124;9.6534;1.3934;
474037627667437;0.0658;9.0728;2.0794;
474037647680668;0.0359;10.1897;0.4633;
474037667671630;0.1245;9.8438;1.0977;
474037687669399;0.0359;9.2189;2.3020;
474037707680207;-0.5567;9.5804;1.4365;
474037727673630;-0.1700;10.2723;0.8571;
474037753862168;0.2789;9.1482;1.7154;
474037787654168;-0.2909;10.0904;1.0439;
474037807662745;-0.4334;10.3513;0.9218;
474037827637514;0.1604;9.6019;2.7078;
474037847630476;-0.2622;9.4020;2.0925;
474037867648091;0.1556;9.6881;1.3336;
474037887682437;-0.3603;9.8198;1.4736;
474037907687860;-0.4357;9.8545;2.0147;
474037927739206;-0.0036;10.1646;1.4509;
474037947676168;-0.1736;9.7432;1.3743;
474037967676899;0.0958;9.1399;1.8615;
474037987668629;-0.1963;9.5876;1.7909;
474038007751168;-0.2741;10.4758;0.5626;
474038027673476;-0.4226;9.4104;1.2079;
474038047752052;0.7422;9.1291;1.8687;
474038067680552;0.2765;9.8198;0.6177;
474038087666706;-0.9637;10.4722;0.1580;
474038107686206;-0.1700;9.8078;2.0387;
474038127680706;0.3711;9.6367;2.3236;
474038147674745;-0.4681;9.9072;1.0331;
474038167768052;0.1365;9.7408;1.6017;
474038187668399;0.6608;9.8138;2.2051;
474038207684014;-0.5674;10.3561;1.2546;
474038227682091;-0.2274;10.3693;1.4521;
474038247683514;0.5830;9.2656;1.6257;
474038267674437;0.9984;9.0644;1.5921;
474038287679091;-0.3603;10.6183;0.7362;
474038307682783;0.2322;9.8916;2.0279;
474038327725052;0.9613;9.3673;2.0004;
474038347764206;0.3077;9.3913;1.6316;
474038367761321;0.1377;9.8988;1.0714;
474038387669168;0.2227;9.7540;1.2378;
474038407690475;0.9505;9.8665;1.2522;
474038427676360;0.2370;10.2340;0.8392;
474038447668014;-0.3124;9.5397;1.4952;
474038467670821;0.7434;9.1291;2.1368;
474038487672360;0.7781;10.1299;1.3982;
474038507761321;-0.0084;10.6183;0.7290;
474038527728975;0.6500;9.2452;1.1049;
474038547801744;1.0678;9.3015;1.4257;
474038567673629;0.1856;10.6410;1.5514;
474038587708552;-0.5303;10.7643;1.7597;
474038607678629;-0.1999;9.9347;2.7593;
474038627668475;1.2929;9.8940;1.3743;
474038647665744;0.2370;9.7995;1.1013;
474038667662898;-0.2358;9.4308;2.2218;
474038687660552;-0.1041;9.8869;1.1384;
474038707666783;1.0259;10.2723;0.3579;
474038727666475;0.1508;9.7456;0.3196;
474038747699206;0.3974;8.9938;2.1009;
474038768807437;1.0511;9.8366;1.4952;
474038787813744;-0.5662;9.5481;0.8990;
474038807656129;-0.6740;9.3877;1.4664;
474038827693321;0.3172;9.4751;0.0922;
474038847696321;0.8487;9.1746;0.9469;
474038867641129;0.0311;9.3470;2.1021;
474038887640629;-1.4437;9.9898;0.8080;
474038907638398;0.0419;9.9922;1.4676;
474038927662321;1.0104;9.5888;1.6987;
474038947698706;0.2502;9.2835;2.3463;
474038967656283;-0.2993;9.5720;1.2809;
474038987657090;-0.4034;9.9635;1.4964;
474039007656475;0.2981;9.9144;1.8124;
474039027667552;-0.3017;10.3549;-0.6141;
474039047658167;-0.0766;9.2201;1.6400;
474039067666436;1.2151;8.6957;1.9441;
474039087661167;-0.4992;10.5680;0.4645;
474039107730629;-0.5207;10.8218;0.5387;
474039127668782;0.3879;8.7532;2.7054;
474039147673513;0.3938;8.9507;1.6412;
474039167669782;-0.0144;10.3406;0.7338;
474039187732129;-0.2478;10.5572;0.6919;
474039207733244;0.3915;9.3948;2.5714;
474039227732821;-0.0742;9.8055;1.8340;
474039247735629;-0.4741;9.8881;-0.0922;
474039267679129;1.2689;9.0944;2.3355;
474039287665975;-0.7566;10.1658;0.7781;
474039307669821;-0.6345;10.6745;0.9744;
474039327672628;0.7147;9.6618;1.2031;
474039347713128;0.7183;8.6718;1.8256;
474039367667282;0.1113;9.5026;1.3563;
474039387665782;-0.2717;10.2484;0.5722;
474039407773398;0.4106;9.7121;1.8244;
474039427763936;0.8978;9.5565;1.9070;
474039447759782;-0.3077;10.0233;0.4202;
474039467670167;0.3232;9.5660;0.8906;
474039487675013;0.7673;9.3937;1.4641;
474039507681090;0.1975;10.2328;-0.0108;
474039527682436;-0.3424;9.8126;0.8631;
474039547684782;0.7865;8.6323;1.1492;
474039567652474;1.0630;9.4667;0.1532;
474039587727398;-0.0527;10.4663;0.2921;
474039608143667;-0.1820;10.3058;1.2127;
474039627661128;0.8918;9.7659;1.3587;
474039647669128;0.4178;9.7659;0.8583;
474039667664244;-0.2394;9.1147;1.4389;
474039687667821;0.4369;9.7683;1.2641;
474039707656821;0.0395;9.9742;0.6428;
474039727665820;0.4645;10.1694;-0.4776;
474039748194859;0.1844;9.3027;-0.1137;
474039767664820;0.6859;9.5265;1.6113;
474039787676590;0.0024;10.2651;0.9972;
474039807655090;-0.5650;10.5046;1.1791;
474039827661282;0.2167;10.1179;1.1025;
474039847638167;0.4597;9.9527;0.9565;
474039867681320;0.2502;9.4272;0.0766;
474039887673320;0.4070;10.0137;0.7733;
474039907632897;-0.0455;10.6350;1.0678;
474039927662474;0.3795;10.2855;1.7538;
474039947676166;-0.1832;9.2943;1.8842;
474039967744205;-0.0742;9.7013;0.9146;
474039987660205;0.6404;10.2424;0.3160;
474040007733166;0.0239;10.1658;-0.2646;
474040027738897;-0.3232;9.9192;1.8759;
474040047739282;0.2047;9.8653;0.1448;
474040067671436;0.7889;9.6486;0.8655;
474040087674705;-0.3950;9.9922;0.7159;
474040107651513;-0.3268;10.5584;-0.1951;
474040127668859;0.5052;10.2651;-0.3029;
474040147680589;0.1053;9.5110;0.4573;
474040167657359;-0.4944;9.3254;0.9972;
474040187655936;0.3244;9.9419;1.1372;
474040207650320;-0.0754;10.3825;0.9373;
474040227651359;-0.6596;9.8390;0.5124;
474040247662166;-0.6237;9.2093;0.5614;
474040267663359;1.0439;9.3757;0.9349;
474040287671012;-0.2454;10.0173;0.7925;
474040307662512;-1.1720;9.9874;0.6404;
474040327658282;0.2047;9.3063;0.1568;
474040347680435;0.1927;9.0812;-0.4094;
474040367652128;-0.4729;9.3362;-0.5339;
474040387660435;-0.2729;9.7648;-0.1640;
474040407735858;0.2526;9.7911;0.0682;
474040427666166;0.0455;9.6450;0.6464;
474040447673320;-0.8200;9.3972;1.1049;
474040467646820;-0.2430;9.3230;0.9313;
474040487663935;0.5578;9.6271;1.1241;
474040507657012;-0.8583;9.6283;0.1832;
474040527661858;-0.0575;9.6810;1.2653;
474040547827397;0.3448;9.7600;0.9146;
474040567662935;0.3340;9.4667;0.8978;
474040587682320;-1.2546;9.5565;0.8092;
474040607663743;-0.5842;9.9228;0.2167;
474040627679589;1.2079;10.1754;0.1844;
474040647774435;-0.5686;9.5193;0.0527;
474040667664051;-0.7949;9.0728;0.2526;
474040687661243;0.2059;9.9635;-0.2586;
474040707660051;0.5950;10.5489;-0.6452;
474040727657397;-0.0299;10.2017;0.5507;
474040747684012;-0.8559;9.5146;0.9577;
474040768617551;0.7590;9.7241;0.9086;
474040787664089;0.1939;10.7703;0.2837;
474040807660281;-0.8571;10.4830;0.9254;
474040827641397;-0.0311;9.7408;1.5299;
474040847658935;0.2394;9.5110;1.2246;
474040867646974;0.3627;9.7157;0.4932;
474040887637666;-0.2586;10.1514;0.8835;
474040907637666;-0.4214;9.8258;0.9577;
474040927643743;0.7183;9.8102;0.1808;
474040947672281;-0.2957;9.6367;-0.5447;
474040967678897;0.0838;9.4679;-0.0599;
474040987725435;0.3029;9.8988;0.5638;
474041007656127;0.0862;10.2029;0.5327;
474041027657473;-0.4106;9.8462;0.2670;
474041047659050;-0.1832;9.2356;1.2510;
474041067662973;0.7985;9.4619;0.8392;
474041087656820;-0.0395;10.2292;0.0730;
474041107688435;-0.3100;10.3633;0.2215;
474041127686089;0.2406;9.5624;1.4904;
474041147663858;-0.3543;9.3960;1.0666;
474041167664627;0.0335;9.6905;1.3144;
474041187648050;0.2346;9.6606;1.5957;
474041207718704;-0.3340;9.9551;0.7554;
474041227670627;-0.1437;9.9084;0.0611;
474041247704435;-0.0467;9.3422;0.4645;
474041267650627;0.2382;9.8761;2.2793;
474041287642512;-0.8428;10.2975;0.8392;
474041307688281;0.2298;9.8294;0.6069;
474041331880242;0.2191;9.3290;0.9361;
474041367640896;-0.0132;10.1335;0.1030;
474041387635127;0.3148;10.0377;0.7207;
474041407638435;0.1018;10.1406;0.9553;
474041427642473;-0.2837;10.0018;0.3460;
474041447646781;-0.2370;9.5876;1.2905;
474041467646896;0.4968;9.4332;2.0901;
474041487652896;0.1341;9.9922;1.3551;
474041507670588;-0.3615;10.2173;0.6955;
474041527668204;0.6381;9.5960;1.4832;
474041547667050;0.3687;9.1877;1.6149;
474041567722242;0.0994;9.8485;0.8128;
474041587682550;-0.3388;10.2041;1.0343;
474041607662242;0.2502;10.2161;1.9237;
474041627759665;0.0299;9.4655;1.9261;
474041647667973;-0.3208;9.5828;0.9290;
474041667754704;0.7721;9.4990;0.7039;
474041687673819;0.1808;10.1131;-0.1305;
474041707672627;-0.1041;10.0963;0.4693;
474041727673858;0.0060;9.3805;0.5112;
474041747698127;-0.2753;9.0537;-0.0239;
474041767672319;0.3903;10.2592;2.0925;
474041787935896;-0.3627;10.4734;0.6788;
474041807656165;-0.1939;9.9647;0.8344;
474041827658281;0.2334;9.3757;2.2122;
474041847675396;0.3771;9.6857;1.6101;
474041867676627;-0.0239;10.2807;1.4162;
474041887721011;-0.5650;10.1071;1.4928;
474041907659434;0.0287;9.6893;1.1360;
474041927680319;0.3699;9.3051;0.7973;
474041947663857;0.3041;9.5936;1.0307;
474041967666550;0.3041;9.5553;1.7813;
474041987662511;-0.2813;9.7061;0.6297;
474042007673896;0.4525;9.8593;1.2977;
474042030201819;-0.2981;9.3506;2.0458;
474042047663357;0.6752;9.4571;1.5921;
474042067661011;0.5363;9.9982;1.1349;
474042088102473;-0.4549;9.6953;0.9708;
474042107636011;-0.3579;9.8462;0.3053;
474042127633396;0.3256;9.5445;1.1851;
474042147637396;0.6428;9.4116;1.5299;
474042167640819;-0.3017;9.7085;1.6987;
474042187646588;-0.1173;10.2891;1.3156;
474042207640011;0.3065;10.0928;1.5886;
474042227654819;-0.2011;9.1674;1.9453;
474042247830780;0.3519;9.6115;0.7230;
474042267675934;0.4896;10.2520;0.9708;
474042287708242;-0.8835;9.8593;1.4940;
474042307654280;0.0814;9.7073;1.4593;
474042327714280;0.0563;9.4894;1.3360;
474042347661934;0.2526;9.5002;1.4521;
474042367661549;-0.2490;9.9599;1.0906;
474042387661857;-0.4812;10.2472;0.4202;
474042407657319;0.2801;10.0521;0.7853;
474042427653203;-0.5650;9.5684;1.6987;
474042447661011;0.3340;9.5672;1.1588;
474042467661319;0.4860;10.2448;1.4485;
474042487657203;-0.6153;10.3777;1.0534;
474042507670049;0.2083;9.6654;0.1173;
474042527662511;0.2562;9.5900;0.6560;
474042547658318;0.8428;9.7983;1.3264;
474042567659665;0.0227;10.3717;1.9261;
474042588064972;-0.8571;10.3106;1.6735;
474042607671088;0.2310;9.8067;1.6556;
474042627646088;-0.0539;9.4451;1.4569;
474042647662011;0.1353;9.9024;1.2558;
474042667678203;0.4764;10.2388;1.3695;
474042687733549;-0.3065;10.2149;0.1939;
474042707675895;-0.1161;10.0377;0.3148;
474042727655203;-0.4381;9.4786;1.6017;
474042749281472;0.6129;9.6307;0.4513;
474042767679011;-0.0227;10.0329;0.3938;
474042787655357;-0.7901;9.9168;0.8284;
474042807641549;0.3998;9.6666;0.8320;
474042827643280;-0.3567;9.2093;0.2646;
474042847745011;-0.0850;9.2859;0.0886;
474042867670241;0.4094;9.7959;0.9230;
474042887678818;-0.2705;9.7947;0.4022;
474042907667011;-0.2945;9.5086;0.6560;
474042927665241;-0.5794;8.9914;0.7889;
474042947671203;0.4621;9.2440;0.7123;
474042967752934;0.5136;10.0042;0.7518;
474042987664664;-0.4022;10.0999;0.6081;
474043007759280;-0.3986;9.2404;1.2486;
474043027942664;-0.1604;9.2153;0.7961;
474043047666587;0.4357;9.4248;0.4848;
474043067669818;0.2658;10.1514;0.8523;
474043087755703;-0.6512;10.0449;0.4992;
474043107765357;-0.1209;9.5636;0.2418;
474043127779780;0.0982;9.0130;0.8942;
474043147668972;0.1856;9.3925;0.3136;
474043167762510;0.0910;10.0473;0.7494;
474043187671856;-0.5698;9.6127;1.4964;
474043207746856;0.0850;9.5804;0.8727;
474043227749741;0.0048;9.4954;-0.3771;
474043247668472;0.1796;8.9160;1.5814;
474043267754626;0.0515;9.9970;0.4992;
474043287669549;-0.2849;10.2208;-0.0371;
474043307685664;-0.2035;9.2356;1.5802;
474043327668626;-0.3304;8.4922;2.0231;
474043347681549;0.6536;9.8737;0.7027;
474043367681395;0.5986;10.7129;0.8212;
474043387681318;-1.6281;9.0644;2.1823;
474043407680318;-0.1460;8.6682;1.8555;
474043427683664;0.4573;9.9000;0.3567;
474043447676664;1.1684;9.7420;1.3180;
474043467677779;-0.4549;9.1207;2.4900;
474043487676318;-1.2881;9.8653;0.9038;
474043507679933;1.0295;9.9192;1.1600;
474043527688049;-0.6021;9.4990;1.6508;
474043547684856;-0.3364;9.3146;2.0806;
474043567678087;0.9960;9.8438;1.0786;
474043587681048;-0.3196;10.2604;0.2801;
474043607753241;-0.3723;9.9802;0.0994;
474043627680741;-0.5435;9.5289;1.1803;
474043647672318;0.6716;10.0365;0.7410;
474043667670587;0.0419;10.6303;1.8926;
474043687673587;-1.1504;10.5620;1.4593;
474043707676702;0.0299;9.5960;1.6376;
474043727679318;-0.0778;9.5110;1.5754;
474043748655587;0.1053;9.8677;0.3472;
474043767664433;-0.1269;10.1347;1.1145;
474043787983933;-0.8416;10.1598;0.2741;
474043807665587;-0.3232;9.8162;0.6656;
474043827636664;-0.5016;9.3625;0.4298;
474043847656548;0.2741;9.5457;0.2658;
474043867634164;0.2011;10.2783;0.1652;
474043887643587;-1.2546;10.1323;-0.4190;
474043907642664;0.0563;9.7707;-0.3196;
474043927643548;-0.0012;9.5756;0.7542;
474043947651241;-0.4118;9.9084;1.0882;
474043967654279;0.0024;10.0102;0.8583;
474043987668856;0.1137;9.9623;1.3898;
474044007654433;-1.2665;9.8402;0.1245;
474044027648356;-0.4992;9.7659;-0.6093;
474044047725856;1.0953;9.6474;0.6297;
474044067735587;0.0168;9.7576;2.2326;
474044087660125;-1.4186;10.1359;0.4357;
474044107659471;0.7278;10.2268;0.0431;
474044127741625;-0.1437;9.1219;1.4317;
474044147649163;-0.5327;9.4930;0.3340;
474044167651240;-0.1556;10.5297;-0.3005;
474044187729163;0.5495;10.2747;-0.0742;
474044207678433;0.0730;9.9479;1.3312;
474044227652548;-1.4976;9.7444;1.2605;
474044247678202;1.0882;9.6271;-0.4441;
474044267707856;0.5818;10.3741;0.4441;
474044287743317;-1.2701;10.3130;0.0982;
474044307720202;0.0922;9.6977;0.3304;
474044327645586;0.3903;8.8693;1.2665;
474044347740163;-0.0862;9.7037;0.2538;
474044367665740;0.1676;10.4471;0.4561;
474044387664548;-0.7673;9.9898;0.9900;
474044407665356;0.1221;9.3937;0.5195;
474044427680394;-0.6931;9.3194;0.2095;
474044447667240;0.4334;9.8114;0.3196;
474044467662086;0.7051;10.0221;0.0886;
474044487651509;-0.0407;9.6295;1.6113;
474044507658856;-0.6716;9.5481;0.2263;
474044527662317;-0.0718;9.2847;-0.0754;
474044547661163;0.5698;9.9024;0.1784;
474044567664394;-0.3232;9.7947;0.3555;
474044587670855;-0.5854;9.9970;0.8942;
474044607674279;0.1808;9.8342;2.1668;
474044627724625;-0.2370;9.4511;1.0295;
474044647738509;0.0215;9.4080;1.3408;
474044667659855;-0.0323;9.8533;2.4217;
474044687675702;-0.1460;10.2280;1.0295;
474044707665625;-0.3675;10.0844;0.0754;
474044727662432;-0.3915;8.8957;2.2314;
474044747766163;0.5483;10.0173;-0.0299;
474044767651355;0.5878;10.3813;-0.2023;
474044787715817;-0.7997;9.1961;1.1133;
474044807675855;-0.2586;9.1099;0.8452;
474044827642625;-0.1472;9.9898;-0.2322;
474044847698740;0.6680;9.7013;0.7925;
474044867657278;0.3735;9.5541;1.9632;
474044887702817;-0.5471;9.8833;1.2737;
474044907650163;-0.1437;9.9575;0.9361;
474044927643971;-0.1460;9.3948;2.3858;
474044947668240;0.2526;9.5660;2.5402;
474044967759778;0.1772;10.3094;2.3439;
474044987669086;-0.0539;9.6869;0.5124;
474045007681240;-0.3795;9.0285;1.3994;
474045027664009;0.0958;9.2189;1.2342;
474045047669624;0.7805;9.8904;0.2119;
474045067678509;0.3112;10.2149;0.9337;
474045087669701;-0.6488;9.6031;1.2115;
474045107668547;-0.1149;9.5337;1.7262;
474045127675547;-0.0694;9.8234;1.7406;
474045147660932;0.0347;9.9994;1.1756;
474045167668509;0.5160;10.0365;1.0499;
474045187667586;-0.1221;9.9563;1.2378;
474045207685432;0.2933;9.5158;1.2510;
474045227669124;-0.2406;9.5349;1.3264;
474045247664278;0.0263;9.6426;1.2965;
474045267666970;-0.1197;10.3082;1.0439;
474045287755586;0.0994;9.8928;1.4760;
474045307666740;0.0778;9.6618;1.3587;
474045327751893;-0.3280;9.0621;1.4940;
474045347753932;0.2310;9.6043;0.2346;
474045367673740;0.7147;9.9264;0.9792;
474045387681163;-0.5219;9.7995;1.4030;
474045407711586;-0.1472;9.3027;1.2282;
474045427675239;0.1209;9.5361;0.7673;
474045447714393;0.1460;9.8342;0.7649;
474045467672509;0.0718;9.6762;1.2809;
474045487657816;0.2346;9.4834;1.1360;
474045507654663;-0.0958;9.7839;1.3970;
474045527659278;-0.3855;9.7133;2.4050;
474045547643586;0.4286;9.2871;2.5534;
474045567709086;0.6524;9.9048;1.6412;
474045587664316;-0.6716;10.7308;0.0108;
474045607651124;-0.0455;9.7420;1.1504;
474045627662932;0.1437;8.8011;2.4948;
474045647655432;0.4908;10.1634;0.8703;
474045667653124;0.2346;10.6362;1.6269;
474045687651124;-0.3460;9.9264;0.9230;
474045707650893;0.3029;9.4320;2.2182;
474045727642932;-0.3268;9.9778;1.0008;
474045748038239;0.6285;10.0245;1.3539;
474045767660085;0.1772;10.0580;1.8531;
474045788377932;0.1628;9.6522;1.4389;
474045807639316;0.1939;9.3733;2.0075;
474045827649893;-0.5219;9.7013;1.2881;
474045847646124;0.3268;9.8581;1.1420;
474045867648739;1.1588;9.8342;2.0542;
474045887651201;-0.0982;10.4471;1.1983;
474045907651008;-0.9697;9.7899;1.1732;
474045927661931;0.2394;8.7843;2.1967;
474045947668585;1.0211;9.8438;0.9852;
474045967668931;-0.2622;10.3477;0.4980;
474045987674008;-0.3089;9.3529;1.6005;
474046007670470;0.8918;9.5684;1.8100;
474046027668547;-0.4082;9.8569;1.1337;
474046047662278;-0.5339;9.6702;0.6907;
474046067664816;0.7302;9.4882;2.7473;
474046087660085;0.1113;10.4567;1.0534;
474046107651508;-0.9565;10.4471;0.7446;
474046127651047;-0.6333;8.8538;2.0494;
474046147645470;1.1432;9.2751;2.3116;
474046167697893;0.3232;10.4746;0.9553;
474046187657854;-0.8404;10.4531;-0.1437;
474046207649662;-0.1149;8.7293;1.8890;
474046227670893;0.4681;9.1291;1.4437;
474046247643624;-0.3519;10.4639;0.3926;
474046267659547;-0.2179;9.4906;1.9178;
474046287658047;-0.0970;9.0704;1.2007;
474046307653931;-0.2478;10.3489;-0.1137;
474046327646354;-0.6117;9.9252;0.7278;
474046347653893;0.1496;9.2464;2.3966;
474046367649316;0.9290;9.5301;2.0830;
474046387651662;-0.1161;10.5429;-0.2610;
474046407660431;-0.7578;9.9826;0.4286;
474046427657700;0.3256;8.8992;1.6664;
474046447655200;0.0898;9.1279;1.5239;
474046467649200;-0.2729;10.0975;0.7207;
474046487649700;-0.3112;9.3925;2.1859;
474046507652239;0.2909;9.3003;0.8392;
474046527658277;-0.1808;9.5361;0.7877;
474046547660008;-0.4070;9.5098;1.4138;
474046567670277;0.5830;9.5696;1.5060;
474046587649085;0.2274;9.5924;1.5969;
474046607656546;-1.0283;9.9659;0.7075;
474046627657046;-0.1963;9.6091;2.0698;
474046647649739;0.3232;9.3565;1.8603;
474046667643700;0.8068;9.6893;1.6305;
474046687643585;-0.3867;10.3334;2.1416;
474046707638431;-0.7290;10.2268;1.5227;
474046727640969;0.4274;9.1231;1.1420;
474046748414200;0.1808;9.4367;0.5614;
474046767670315;0.0515;10.1969;0.1939;
474046787648085;0.6536;9.9132;1.5658;
474046807635469;-0.1329;9.6798;1.7502;
474046827690315;-0.2945;9.9491;0.7781;
474046847696662;0.0204;10.0568;0.8248;
474046867690854;0.7470;9.7707;1.6999;
474046887690546;0.2466;9.5852;1.3515;
474046907689508;-0.1269;10.2891;0.3268;
474046927688085;0.1496;9.9012;-0.7398;
474046947692354;0.0886;9.0225;1.4688;
474046967689085;0.2813;9.6067;1.2294;
474046987699200;0.1688;10.6674;1.3838;
474047007659469;-0.5471;9.8450;2.6863;
474047027692585;-0.0622;9.3889;2.0770;
474047047656431;0.3112;9.9180;1.4150;
474047067696931;0.0922;10.3358;0.7805;
474047087697969;0.2562;9.4248;2.6707;
474047107696815;0.0335;9.5852;1.6005;
474047127649969;-0.3400;9.8210;0.4070;
474047147641084;-0.0958;9.6355;0.9481;
474047167651354;-0.0275;9.4391;1.7669;
474047187651392;0.2813;9.7911;1.8914;
474047207679969;0.3675;9.6403;1.5526;
474047227655200;-0.5734;9.6738;0.4250;
474047247724584;-0.0515;8.9938;1.4772;
474047267696777;0.0587;9.2811;1.3743;
474047287710930;-0.0658;10.2651;0.4848;
474047307669700;0.4513;10.0844;2.1093;
474047327670930;-0.5471;9.4415;1.9118;
474047347717277;0.4633;9.4834;1.8794;
474047367659315;-0.5758;9.6618;1.6400;
474047387671853;0.2813;10.1167;1.1492;
474047407669815;0.4142;9.4056;1.9824;
474047427643084;-0.0982;9.6462;1.0762;
474047447671392;-0.5267;9.6953;-0.1844;
474047467662046;-0.3089;9.3326;1.2977;
474047487723276;0.6452;9.6343;1.1432;
474047507735276;0.5842;10.0317;1.3144;
474047527713853;-0.6069;9.7097;0.1161;
474047547706546;-0.4094;9.4344;1.0511;
474047567718892;0.4046;9.5050;2.0794;
474047587723046;0.3448;10.1742;1.7861;
474047607722046;-0.9122;10.3082;1.5419;
474047627706661;0.1915;9.4595;1.9692;
474047647659199;0.3591;9.5948;1.4413;
474047667699507;0.0060;10.0772;1.5239;
474047687725815;-0.8847;10.1023;1.6999;
474047707679622;0.5195;9.7396;1.2163;
474047727651738;0.3543;9.8007;1.3240;
474047747699853;-0.5279;9.7372;0.4776;
474047767653622;-0.1832;9.8330;0.7219;
474047787725622;-0.4764;9.7456;1.5814;
474047807663738;0.2454;9.8007;1.0020;
474047827804738;0.5303;9.8833;1.0080;
474047847666276;-0.4154;10.0820;0.9026;
474047869014507;-0.2873;9.5014;1.9118;
474047887641661;0.0778;9.1578;2.1679;
474047907690276;-0.3053;9.9623;1.2713;
474047927645007;-0.0072;9.8797;1.6316;
474047947640199;0.4729;9.6199;2.5247;
474047967640122;-0.3926;9.5900;0.9493;
474047987667776;-0.5004;9.6941;1.4916;
474048007670353;0.0204;9.3745;1.7585;
474048027664622;0.4812;9.1937;1.4210;
474048047759353;0.2693;9.5600;0.8595;
474048067736315;-0.3543;9.4475;0.3005;
474048087683391;-0.3268;9.5864;0.5339;
474048107670776;0.0634;9.3613;1.4952;
474048127726968;0.0694;9.9563;0.9625;
474048147646584;0.0024;9.9695;1.2665;
474048167726314;0.2215;9.9455;1.4461;
474048187681122;-0.3986;9.6642;1.0798;
474048207668699;-0.4417;9.5577;1.3408;
474048227671161;0.8296;9.7181;1.1396;
474048247668468;0.3974;9.9144;0.9301;
474048267664314;-0.2670;9.9228;1.3108;
474048287673661;-0.2478;9.6391;0.8643;
474048307666353;0.3531;9.4834;1.9944;
474048327671084;-0.4884;9.6929;1.4736;
474048347664930;0.0898;9.8629;0.3819;
474048367673468;0.9840;9.2285;1.4688;
474048387687622;0.0132;9.3039;0.0359;
474048407682930;-0.3543;9.4511;0.7314;
474048427669853;-0.4908;9.4511;1.0642;
474048447848583;0.3926;9.5996;0.6464;
474048468083122;0.1508;9.3805;1.7585;
474048487723353;0.0108;9.8318;0.5555;
474048507669237;0.3089;9.7372;1.2510;
474048527661007;-0.7566;9.2644;1.9225;
474048547663814;-0.6357;9.7145;0.9864;
474048568204699;0.4980;10.1430;0.3184;
474048588654583;0.4513;9.3769;1.4928;
474048607752160;-0.9924;9.4056;1.5227;
474048627654699;-0.4250;10.2651;0.3352;
474048647650814;0.3675;9.8581;0.2741;
474048667664545;-0.2933;9.3003;1.9585;
474048687661814;-1.0211;9.9132;2.0435;
474048707669622;0.3759;10.8074;0.2789;
474048727686122;-0.0419;8.8550;0.9122;
474048750482429;-1.6520;8.9555;2.5319;
474048767666660;0.0108;10.9092;0.2454;
474048787729314;1.1839;10.6231;2.2098;
474048807661660;-0.5770;9.2308;1.9166;
474048827655122;-1.1720;9.3158;0.5806;
474048847641429;-0.2167;10.3717;-0.1041;
474048867669891;1.2689;9.8737;2.2853;
474048887673237;-0.5854;9.5553;1.5634;
474048907668699;-0.6955;10.1598;0.1089;
474048927671429;0.4741;10.0940;-0.3519;
474048947675391;0.6416;8.9675;0.4142;
474048967663391;-0.9218;10.0425;0.5650;
474048987753237;0.2981;10.2747;-0.4908;
474049007676506;1.2989;9.1901;1.4712;
474049027667237;-0.1844;9.6666;1.4844;
474049047682545;-0.5770;10.5572;0.1233;
474049067685660;-0.4453;9.4727;1.3276;
474049087667545;0.9613;8.8849;1.6700;
474049107744314;0.4992;9.8928;0.1604;
474049127741006;0.2370;10.3681;0.8607;
474049147662929;-0.4190;9.7229;1.2617;
474049167670698;-0.0491;9.2105;1.1313;
474049187759006;-0.0227;9.7001;0.4178;
474049207686083;-0.2909;10.2113;-0.5938;
474049227772198;0.7865;9.4595;1.8411;
474049247678044;0.3112;10.2520;-0.0431;
474049267746275;-1.1181;10.0556;0.0479;
474049287664775;-0.7997;9.5134;0.9457;
474049307667852;0.3352;9.6881;1.6221;
474049327683160;0.2334;9.7947;1.2605;
474049347670852;-0.3184;10.3825;0.0263;
474049367670198;-0.9960;9.6869;0.4992;
474049387762621;0.4561;9.6019;0.8930;
474049407680737;-0.3903;9.6594;1.6436;
474049427671967;-0.8667;10.0054;0.8655;
474049447974467;-0.4250;9.7516;1.2139;
474049467694698;-0.0491;9.7444;1.1696;
474049487690544;-0.0096;9.5098;2.0937;
474049507682890;-1.5299;9.9108;1.5610;
474049527684467;-0.3053;10.3621;0.6560;
474049547673544;1.2198;9.8007;2.0746;
474049567675429;-0.5782;9.5792;1.2198;
474049587668390;-1.7442;9.7492;0.8547;
474049607668237;0.3675;9.6462;0.1077;
474049627721583;1.2282;9.5660;-0.0946;
474049647652044;-0.5016;9.8402;0.2274;
474049667660236;-1.2893;9.8282;1.8172;
474049687868660;0.7697;10.3334;1.4880;
474049707677544;0.2873;10.1287;0.9254;
474049727672506;-1.1073;9.3446;0.8140;
474049748354698;0.5243;9.8234;0.2693;
474049767662121;1.5682;10.2149;0.9230;
474049787671967;0.0563;9.7444;-0.2346;
474049807657544;-1.2785;9.7911;-0.8918;
474049827648313;0.6979;9.7659;0.5339;
474049847649544;1.2258;9.6379;1.4078;
474049867648967;0.3232;9.4523;-0.2442;
474049887643506;-0.0539;9.5493;-1.0690;
474049907678929;1.1887;9.1866;0.0347;
474049927677352;0.5746;9.4918;-0.2358;
474049947677890;-0.6500;9.7444;-0.1951;
474049967666275;1.3072;9.0513;-0.0132;
474049987668467;0.8392;9.5277;1.2941;
474050007668544;0.0012;10.1742;0.6404;
474050027673929;0.2239;9.2680;0.9433;
474050047668967;0.3687;8.3222;1.6771;
474050067664928;0.3112;9.7169;-0.7230;
474050087745813;0.5171;10.0940;-0.3867;
474050107665428;0.7889;9.1973;1.1660;
474050127765390;-0.1628;8.6898;1.6987;
474050147669159;-0.3424;9.4152;0.0754;
474050167666967;-0.2466;9.8641;-0.4010;
474050187751159;0.8847;9.5600;0.4154;
474050207719775;0.3747;9.3972;0.0922;
474050227664159;-0.3950;9.6426;-1.0427;
474050247668198;-0.1281;9.6163;0.1772;
474050267667159;0.4788;9.1794;2.4792;
474050287834351;-0.3280;9.7899;1.1648;
474050307680813;-0.3867;9.8617;0.2203;
474050327664698;1.3779;9.1578;0.4513;
474050347767005;0.1413;10.1766;0.3508;
474050367671774;-0.9086;10.8350;0.7757;
474050387666351;0.2490;10.3633;1.7813;
474050407670121;0.5016;10.1789;1.9010;
474050427687621;-0.6512;10.2795;-0.4082;
474050447688351;1.3599;10.2544;-0.1245;
474050467762274;0.4166;9.4535;0.4202;
474050487796082;-1.8854;9.4308;1.0534;
474050507662428;0.5183;10.1382;0.2119;
474050527657236;1.8232;10.8074;-0.0563;
474050547660851;0.1700;9.2739;1.5203;
474050567662197;-1.8699;8.8430;-0.7614;
474050587662274;1.6496;9.9539;-0.6979;
474050607677890;1.8759;8.9028;0.8799;
474050627660467;-0.7003;8.6119;1.3036;
474050647658620;-0.0467;9.3446;1.9381;
474050667653851;0.8559;10.3106;0.1808;
474050687666928;0.4106;9.4810;0.6584;
474050707665813;-0.2777;9.1219;2.2972;
474050727669505;1.2210;10.4950;0.4860;
474050747684697;0.5100;10.6398;0.4118;
474050767856390;0.2418;8.6263;1.9034;
474050787741005;-0.2083;9.2859;0.4992;
474050807647236;0.0287;10.9750;-0.7590;
474050827693082;0.7039;9.5612;1.0810;
474050847682889;0.2765;7.6219;2.2290;
474050867638005;-0.6033;9.9276;1.1971;
474050887640505;1.1145;11.9997;-0.5650;
474050907642312;1.6137;9.9814;0.5219;
474050927643543;-1.1648;8.5760;3.7816;
474050947685351;-0.7566;9.7540;1.6927;
474050967709966;2.9987;10.9930;1.4174;
474050987720889;1.1827;9.1794;1.9656;
474051007724428;-2.3559;8.2265;1.5874;
474051027729774;0.9708;10.5046;-2.4026;
474051047638466;3.9444;11.6418;-3.8331;
474051067640082;1.0523;8.6850;1.0151;
474051087681159;-1.3443;8.4312;2.7641;
474051107681005;2.1189;10.9056;-1.3731;
474051127676505;2.8766;11.2013;-2.5163;
474051147661312;1.0786;8.1858;1.7322;
474051167675812;0.5926;8.7436;0.9649;
474051187669889;2.3451;11.4419;-1.5850;
474051207667543;2.3762;9.0776;1.3671;
474051227677081;0.6835;8.0110;3.2896;
474051247666812;0.3891;11.1749;-0.0227;
474051267743428;2.2458;11.2037;-1.5167;
474051287681235;2.8252;8.3199;2.5331;
474051307666466;1.3838;9.1590;2.3056;
474051327656889;0.6584;11.6227;-2.1632;
474051347656389;1.2953;10.6578;-0.2574;
474051367672966;1.3252;7.7800;4.0761;
474051387760581;1.1732;9.3745;1.7190;
474051407741428;1.2953;11.8992;-1.3827;
474051427676504;1.5897;10.7320;-0.5950;
474051447676658;0.9697;7.9416;2.9784;
474051467655851;0.0838;11.3593;-0.8619;
474051487663658;1.5215;11.1079;-0.4226;
474051507740581;1.2163;8.9531;3.3160;
474051527667466;1.5215;9.5289;1.8471;
474051547673466;0.8763;10.8110;-1.3719;
474051567686081;0.2885;9.9180;-0.6273;
474051587682966;0.8296;8.8143;1.1109;
474051607686812;1.5969;9.4487;0.7865;
474051627683197;1.0714;10.1598;-0.3100;
474051647681043;0.5626;8.7532;0.0299;
474051667683812;1.4545;8.6131;-0.0060;
474051687733543;1.2558;9.9264;-1.2510;
474051707742120;0.6021;10.1347;-0.3388;
474051727674427;0.5543;9.3039;-0.0012;
474051748948927;1.2989;9.0465;0.4226;
474051767674427;1.6915;9.6139;0.8284;
474051787665696;0.4178;9.9264;1.0942;
474051807654620;-0.0204;9.2596;0.3699;
474051827657273;1.9704;9.5277;-0.3603;
474051847650235;2.4098;10.3190;-1.4425;
474051867695004;1.5024;10.3046;-1.3539;
474051887653696;-1.1109;9.3733;0.8164;
474051907641812;-0.2131;9.0800;1.9190;
474051927648773;1.8938;9.9407;0.0431;
474051947673466;0.9529;10.0616;0.9146;
474051967678350;0.5926;9.4260;0.7781;
474051987682235;0.9744;9.8186;-0.7997;
474052007680389;1.9321;10.5357;-1.6915;
474052027681504;0.7805;9.9563;-1.4269;
474052047667466;-0.0036;9.3338;1.6939;
474052067680927;0.9038;9.9491;2.2434;
474052087680004;1.8759;10.1275;-0.1413;
474052107757196;-0.8703;9.7731;-1.6352;
474052127677927;-0.9194;9.4367;-0.4501;
474052147665081;1.6664;10.3274;-1.0834;
474052167680696;2.0063;10.5872;0.4812;
474052187679389;-0.1915;8.9423;1.9884;
474052207683273;-0.3065;9.8390;0.2466;
474052227670773;1.4437;10.9403;0.1209;
474052247684350;-0.0850;9.6738;1.7142;
474052267676042;-0.4812;8.9340;2.9544;
474052287737735;1.1253;10.2256;-1.0726;
474052307757004;1.3216;10.1107;-0.6907;
474052327670735;-1.9178;8.9962;2.0650;
474052347676965;-1.2198;9.1662;1.6592;
474052367676658;1.6053;10.3645;0.0419;
474052387726158;1.6831;9.6750;0.2550;
474052407750081;-0.3675;8.1044;1.6328;
474052427685658;-1.9381;9.3446;-0.9852;
474052447673927;0.9038;10.5249;0.1448;
474052467680388;1.0738;8.5389;1.8148;
474052487665850;-0.3256;9.8892;-0.2370;
474052507750773;-0.1724;10.6291;0.2909;
474052527671273;1.2653;9.6546;2.6348;
474052547685350;-0.1401;9.0285;1.9333;
474052567654581;-0.9840;9.8629;-0.5207;
474052587696119;0.4357;10.2711;-0.1700;
474052607643311;0.7530;9.5900;1.1025;
474052627657927;-0.4010;10.1682;0.9050;
474052647690504;-0.5507;9.4272;-0.0467;
474052667681619;-1.3024;8.2396;1.1983;
474052687683542;-0.9601;9.2548;0.9014;
474052707758811;2.7450;11.4419;1.1444;
474052727682004;1.4114;9.0968;1.7502;
474052749612927;-3.5662;8.0038;2.3499;
474052767682927;-0.0874;10.9487;0.9074;
474052787770234;4.6986;12.4702;-0.1269;
474052807853388;-0.3783;9.8976;3.8104;
474052827651542;-4.4041;7.3442;6.1687;
474052847641003;0.6129;11.4503;-0.0706;
474052867663119;4.4616;12.4726;-2.2039;
474052887731965;-1.0702;8.3115;3.6129;
474052907667388;-3.2406;7.9727;3.4225;
474052927751657;1.4461;11.7867;-1.7490;
474052947733657;0.8559;8.7496;1.2222;
474052967658196;-3.1316;8.2337;2.7821;
474052987671042;-0.6704;10.8936;-0.9206;
474053007661003;2.1356;10.3777;0.3508;
474053027657773;0.7649;8.0912;3.0933;
474053047668542;-1.4664;9.0237;1.3228;
474053067667042;-0.9397;11.1701;-1.2115;
474053087670157;0.2059;10.0449;-0.0778;
474053107664542;-0.6704;8.1235;1.7142;
474053127733311;-0.5555;9.7360;0.9098;
474053147656388;0.4800;10.7799;-0.8691;
474053167670849;-0.0634;9.5397;1.2402;
474053187671888;-1.7849;8.6754;1.8998;
474053207663465;-0.1748;10.1945;0.0024;
474053227670772;0.1532;9.8964;0.0958;
474053247670157;-0.7278;9.3146;0.5040;
474053267669888;-0.7530;9.9084;1.4964;
474053287671503;-0.5567;10.4950;1.2773;
474053307680003;-0.4585;9.8749;1.7442;
474053327663965;-0.2143;9.2500;2.5067;
474053347660195;-0.6153;9.9024;1.0690;
474053367661618;-0.3484;10.3022;-0.2777;
474053387670118;-0.8930;9.7839;0.8392;
474053407763926;-0.5267;9.5792;1.0558;
474053427670849;0.0227;10.1047;1.0882;
474053447781811;0.4034;10.2280;0.4812;
474053467674580;0.0239;9.5361;1.2079;
474053487662926;-1.4928;9.3182;1.7514;
474053507664388;-1.8687;9.5840;0.4633;
474053527674849;0.9182;10.0784;-0.8667;
474053547662080;1.0702;9.7671;-0.4310;
474053567663541;-0.6117;9.4272;0.3460;
474053587674195;-0.8619;9.6115;1.0738;
474053607670464;0.3567;10.0449;1.5227;
474053627672811;-0.4022;9.6738;1.2905;
474053647664811;-1.5993;9.4846;0.6213;
474053667671849;0.4573;10.1778;-1.0606;
474053687670503;0.1903;8.9747;1.0918;
474053707657118;-2.1560;9.3111;0.7865;
474053727679272;-1.0175;10.3346;-0.4717;
474053747682887;1.2270;10.1191;0.2981;
474053767670657;-0.5531;9.3470;0.8823;
474053787675272;-1.5802;9.4020;1.3228;
474053808802464;-0.0958;10.0413;0.9110;
474053827673541;-0.5818;9.7348;0.2598;
474053847678733;-1.2246;9.2979;0.1592;
474053867706772;-0.4669;9.7264;-0.1125;
474053887650003;0.5279;10.3513;0.3867;
474053907734195;-0.4525;9.8940;1.8208;
474053927749695;-1.6676;9.6678;1.6712;
474053947652772;0.1041;10.1562;0.4094;
474053967655618;0.1951;10.2939;1.7549;
474053987668003;-0.7147;10.0545;1.3001;
474054007662349;-0.4681;9.3769;0.3711;
474054027664541;-0.3448;10.1897;-0.0108;
474054047669003;-1.0403;10.8984;-0.6704;
474054067666772;0.0156;10.5728;0.2454;
474054087666964;0.3065;9.5744;1.4653;
474054107658387;-0.7278;9.0106;1.9321;
474054127681579;-0.5662;10.4076;0.0527;
474054147675233;-0.6907;10.2951;-0.8811;
474054167665426;0.5866;9.8569;0.1353;
474054187727964;-0.9780;9.8892;0.7123;
474054207656387;-0.2586;10.3717;-1.1121;
474054227654387;0.5231;9.4619;0.7171;
474054247729772;-2.8000;8.6179;1.7142;
474054267761310;-0.3041;9.8928;0.3759;
474054287669349;1.4664;10.1610;1.1384;
474054307743387;-0.5399;8.6826;2.0913;
474054327671310;-2.3906;8.3091;1.0738;
474054347666387;-0.8739;9.9826;-1.5814;
474054367667925;0.9014;9.8270;-0.5698;
474054387766618;-0.8320;8.5772;1.8699;
474054407671041;-1.7262;8.8945;1.7478;
474054427766848;0.0048;9.4296;-0.0622;
474054447675425;-1.0092;9.0046;0.4453;
474054467676733;-1.7394;8.9076;1.7334;
474054487677118;-0.4106;9.6103;1.5143;
474054507683618;1.1025;10.0664;0.2502;
474054527770271;-0.8679;9.4104;-0.9050;
474054547667233;-1.7681;9.1949;1.0487;
474054567677925;-1.2091;10.4914;-0.5758;
474054587669925;0.6776;10.2244;-0.1113;
474054607720271;0.3268;8.8609;2.7222;
474054627729925;-0.7590;9.5996;-0.0311;
474054647658925;-0.7159;10.4327;-0.7985;
474054667637387;-0.9948;9.9742;-0.1077;
474054687668502;0.2837;9.7588;1.7142;
474054707674194;0.5004;11.1043;0.0778;
474054727672194;-1.0774;10.2460;0.5471;
474054747674194;-0.5195;9.6582;1.6640;
474054767691925;-1.3012;10.4639;-1.1396;
474054788223617;-0.9457;10.0545;0.8547;
474054807654617;-0.0527;9.4870;3.0311;
474054827760002;0.5291;10.6841;1.3707;
474054847657925;-0.0682;10.7045;0.0994;
474054867643964;-1.5095;8.9543;1.2665;
474054887675348;-1.0139;10.3286;-0.3998;
474054907732617;0.4693;11.5472;0.5926;
474054927747848;-0.2131;10.7811;-0.3029;
474054947682463;-1.0151;8.2684;1.4497;
474054967736963;-0.3819;10.2891;-0.0958;
474054987732540;-0.3531;10.6362;-0.9996;
474055007726233;-1.4341;9.0728;1.7418;
474055027733117;-0.7829;8.5042;2.0901;
474055047740656;1.2977;10.1718;-1.1253;
474055067742156;0.2310;10.6207;-1.7897;
474055087722348;-2.6839;8.8945;0.8679;
474055107735348;-0.6105;8.5629;2.6516;
474055127740233;0.9505;10.9487;-1.4210;
474055147660079;-0.3819;9.6019;0.5459;
474055167737348;-1.6915;7.9727;2.9868;
474055187736156;0.5064;10.9774;0.8068;
474055207735732;0.4417;10.5836;0.8104;
474055227731117;-0.8224;8.6802;2.1907;
474055247671079;-1.2582;9.0309;1.0606;
474055267669156;0.4776;10.6350;-0.9313;
474055287735156;-0.4944;10.4471;-0.4992;
474055307671232;-1.2414;8.9878;1.3455;
474055327656425;-0.5806;8.8777;1.5826;
474055347671194;0.5207;10.7895;0.2490;
474055367661232;-0.1688;10.1287;1.3755;
474055387724925;-1.2366;8.4707;2.0614;
474055407655271;-1.4138;9.3470;0.6548;
474055427661771;0.3388;11.2336;-0.1089;
474055447667540;-0.0838;9.3158;1.2917;
474055467661617;-1.6795;8.6024;1.6041;
474055487656694;-0.4022;10.1155;0.3938;
474055507661155;-0.2514;10.5692;-0.2047;
474055527730040;0.0838;9.8342;1.2725;
474055547657771;-0.5004;9.4284;2.6444;
474055567663463;-0.6919;9.8809;1.9058;
474055587654732;-0.3376;10.1873;0.6045;
474055607659771;-0.8535;9.8210;0.7326;
474055627662886;-0.0862;9.5265;0.6021;
474055647728001;0.3376;9.7779;0.6812;
474055667665886;-0.4752;10.1083;0.6333;
474055687659424;0.1688;9.0980;-0.3077;
474055707676924;-0.0311;9.6019;0.5902;
474055727739771;-0.5626;10.4184;0.7506;
474055748388232;-1.9070;9.8043;1.0870;
474055767686078;-0.1018;8.8190;1.5048;
474055787666578;0.4142;8.9124;2.0339;
474055807657886;-0.8440;10.0149;0.6823;
474055827637386;-1.6987;10.1837;-0.6907;
474055847644655;0.9732;9.2045;1.0582;
474055867632078;0.9984;8.7759;1.3683;
474055887627501;-2.3296;9.7887;0.0084;
474055907629078;-1.4748;9.9431;0.8021;
474055927655270;0.3543;9.0261;2.0207;
474055947737309;-0.6081;9.5589;0.4896;
474055967645424;-0.7302;10.1311;0.9804;
474055987643155;-0.1724;9.0992;2.6420;
474056007644924;0.1903;9.5600;2.5127;
474056027647309;-1.3491;10.3226;0.2239;
474056047647270;-0.1353;10.1921;0.4142;
474056067650347;0.3077;9.3506;1.9345;
474056087643886;-0.5064;9.8294;1.9561;
474056107647386;-0.5004;10.6087;2.0638;
474056127667040;-0.8643;10.1155;1.5048;
474056147729463;-0.4166;9.3793;2.2613;
474056167717040;0.4238;9.6091;1.8280;
474056187646732;-0.2023;10.4076;1.3467;
474056207652193;-0.7338;9.6139;1.7059;
474056227655001;-1.0499;9.2692;1.2833;
474056247638347;-0.3112;10.5070;0.0694;
474056267728501;0.2993;10.2580;1.5670;
474056287654809;-0.2933;10.1466;2.0614;
474056307667155;-1.0379;9.4164;2.8084;
474056327673578;-0.4178;9.7109;2.1847;
474056347661309;0.3029;9.9311;1.2342;
474056367735462;-0.7590;10.0904;1.5838;
474056387654770;-1.0894;10.1454;3.1029;
474056407743501;-0.7877;10.1095;2.2242;
474056427670578;-0.3771;9.6486;0.1963;
474056447729193;-0.9948;9.0776;0.6991;
474056467664885;0.2993;9.0932;1.6209;
474056487687116;0.7949;10.6243;0.9852;
474056507672347;-1.1708;10.2149;0.6692;
474056527684424;-0.9625;9.1171;1.5395;
474056547677539;-0.8643;9.3170;0.4681;
474056567688155;0.3244;10.2508;-0.5507;
474056587673808;0.5399;10.1718;0.7709;
474056607674808;0.0611;9.6187;0.7470;
474056627676693;-0.3855;9.1004;1.6149;
474056647682001;-0.7039;9.3865;0.9074;
474056667680462;-0.3555;10.3525;-1.0187;
474056687679347;-0.1832;9.4810;2.8311;
474056707682847;-0.0168;9.4068;1.6640;
474056727674501;-0.2933;9.4679;1.1468;
474056749819001;-0.0766;9.7767;0.8487;
474056767650039;-0.3184;9.7731;0.9960;
474056788193924;-0.4812;9.6367;1.4401;
474056807644462;-0.1281;9.6271;1.3060;
474056827684424;0.2394;9.6211;0.5243;
474056847643347;-0.0682;9.3877;1.8950;
474056867683539;-1.2282;9.5792;1.6903;
474056887657501;-0.5160;9.8916;1.7645;
474056907729924;0.5926;9.8354;1.4976;
474056927655347;-0.5279;9.5684;1.4688;
